timestamp_us,ax,ay,az,gx,gy,gz,vx,vy,px,py,heading_deg
1777404773.2259984,-0.04,-0.27,9.69,0.0,0.0,0.0,0.0,0.0,0.0,0.0,0.0
1777404773.2299435,0.0,-0.27,9.73,0.0,0.0,0.0,0.00015464839935302733,0.0,6.101052913891181e-07,0.0,0.0
1777404773.2339747,0.0,-0.27,9.65,0.0,0.0,0.0,0.0003095102615356445,0.0,1.8577972808216144e-06,0.0,0.0
1777404773.2379186,0.0,-0.27,9.65,0.0,0.0,0.0,0.00045798970474243163,0.0,3.6640720992060957e-06,0.0,0.0
1777404773.2419257,0.04,-0.27,9.65,0.0,0.0,0.0,0.0007629089634811401,0.0,6.721125414661418e-06,0.0,0.0
1777404773.245936,0.04,-0.27,9.65,0.0,0.0,0.0,0.0010619609711770628,0.0,1.0979801832774698e-05,0.0,0.0
1777404773.2499738,0.0,-0.38,9.77,0.0,0.0,0.0,0.0011987691212235324,-0.00043528099060058585,1.5820260187019348e-05,-1.757602419093018e-06,0.0
1777404773.2549212,0.0,-0.38,9.77,0.0,0.0,0.0,0.0013630421374718794,-0.0009579466447830199,2.2563807482274764e-05,-6.496970577884667e-06,0.0
1777404773.2588758,0.0,-0.19,9.77,0.0,0.0,0.0,0.0014917251209474278,-0.0006310202435111999,2.846305669767617e-05,-8.992434134918271e-06,0.0
1777404773.2649353,0.0,-0.19,9.77,0.0,0.0,0.0,0.0016849528573994951,-0.00014011424492454527,3.867287383797124e-05,-9.841443537850752e-06,0.0
1777404773.2689462,-0.04,-0.3,9.58,0.0,0.0,0.0,0.0016530704960972373,-0.00025404353547246543,4.530320033691929e-05,-1.0860390757044517e-05,0.0
1777404773.2728648,0.04,-0.3,9.81,0.0,0.0,0.0,0.0019297665271736414,-0.0003631258027884437,5.2865275627748465e-05,-1.2283352872959544e-05,0.0
1777404773.2749174,0.04,-0.3,9.81,0.0,0.0,0.0,0.0020717983237729374,-0.00041911919865950673,5.7117736052496224e-05,-1.3143614118033742e-05,0.0
1777404773.2819788,-0.04,-0.34,9.65,0.0,0.0,0.0,0.001997044919783086,-0.0008847135855485149,7.121983175994506e-05,-1.939100271379979e-05,0.0
1777404773.2859232,-0.04,-0.34,9.65,0.0,0.0,0.0,0.001956124334014434,-0.0011395835182231692,7.89355626611708e-05,-2.3885972493168218e-05,0.0
1777404773.2899387,-0.04,-0.15,9.65,0.0,0.0,0.0,0.001915299816642255,-0.0006461791070720003,8.662634509179311e-05,-2.6480669616053595e-05,0.0
1777404773.2949407,-0.04,-0.15,9.65,0.0,0.0,0.0,0.0018654620059915636,-4.38401891862093e-05,9.595742669334201e-05,-2.6699959197621043e-05,0.0
1777404773.298926,0.0,-0.27,9.65,0.0,0.0,0.0,0.001982775339947603,-4.2203346134850195e-05,0.00010385958938411601,-2.6868156622984145e-05,0.0
1777404773.3049128,0.0,-0.27,9.65,0.0,0.0,0.0,0.002155473536844195,-3.979373220572649e-05,0.00011676374237592532,-2.710638938238494e-05,0.0
1777404773.30875,0.0,-0.27,9.69,0.0,0.0,0.0,0.002263948912600335,-3.8280202932774954e-05,0.00012545076024572918,-2.7253274678729714e-05,0.0
1777404773.3118992,0.0,-0.3,9.73,0.0,0.0,0.0,0.00235119845985991,-0.00012965139996919331,0.00013285532139730273,-2.7661582074233968e-05,0.0
1777404773.3149164,0.0,-0.3,9.73,0.0,0.0,0.0,0.0024331168609620767,-0.0002154396086546317,0.00014019649024807633,-2.8311603686287927e-05,0.0
1777404773.3207693,0.04,-0.23,9.69,0.0,0.0,0.0,0.002818284498554941,2.298266890961992e-05,0.00015669173383438416,-2.817708755701779e-05,0.0
1777404773.325823,0.04,-0.23,9.69,0.0,0.0,0.0,0.003144208586940408,0.00022473264964931812,0.00017258180508753507,-2.7041342991383875e-05,0.0
1777404773.329743,-0.04,-0.23,9.73,0.0,0.0,0.0,0.003084633274012921,0.0003780860489357526,0.0001846730735454357,-2.5559306226630364e-05,0.0
1777404773.3369236,-0.04,-0.23,9.73,0.0,0.0,0.0,0.002977680929918581,0.0006533931303854612,0.00020605487950115274,-2.086749220910819e-05,0.0
1777404773.3408866,0.0,-0.3,9.69,0.0,0.0,0.0,0.0030751842533895714,0.0005304337940155728,0.0002182418150832759,-1.8765386466623417e-05,0.0
1777404773.343768,0.04,-0.3,9.73,0.0,0.0,0.0,0.003257602614917603,0.0004428243421788804,0.00022762790812786188,-1.7489481769388365e-05,0.0
1777404773.3469164,0.04,-0.3,9.73,0.0,0.0,0.0,0.0034529552458396054,0.00034900299236206183,0.00023849973024103199,-1.6390626389059854e-05,0.0
1777404773.351921,0.0,-0.38,9.69,0.0,0.0,0.0,0.003561076845613814,-0.00018950802157315734,0.00025632165351275465,-1.7339046646828996e-05,0.0
1777404773.3549056,0.0,-0.38,9.69,0.0,0.0,0.0,0.0036242656818890784,-0.0005042266750433232,0.00026713836060072147,-1.8843923145574037e-05,0.0
1777404773.3599167,0.0,-0.19,9.65,0.0,0.0,0.0,0.0037282392321061125,-8.90144796162837e-05,0.00028582087197338455,-1.9289981975018695e-05,0.0
1777404773.3649292,0.0,-0.19,9.65,0.0,0.0,0.0,0.0038301623989805854,0.0003180096317513496,0.0003050196077531868,-1.7695954813911542e-05,0.0
1777404773.3689246,0.0,-0.27,9.69,0.0,0.0,0.0,0.003909779401543027,0.00032271458700264017,0.00032064081289498344,-1.6406574967102573e-05,0.0
1777404773.3749306,0.0,-0.27,9.69,0.0,0.0,0.0,0.0040270678174231704,0.00032964572897546256,0.00034482739197668735,-1.4426721919106797e-05,0.0
1777404773.3789177,0.04,-0.34,9.77,0.0,0.0,0.0,0.004259665583896473,6.0641661149502825e-05,0.0003618109934417935,-1.4184939134787125e-05,0.0
1777404773.3827145,0.04,-0.34,9.73,0.0,0.0,0.0,0.0044767341148099216,-0.00019040252856082661,0.00037880832858448895,-1.4907862477332435e-05,0.0
1777404773.3859167,0.04,-0.34,9.73,0.0,0.0,0.0,0.0046561462648836765,-0.0003978963446838688,0.0003937182398555014,-1.618200612677917e-05,0.0
1777404773.3909287,0.0,-0.23,9.73,0.0,0.0,0.0,0.004734871423844669,-0.00017586982024039968,0.000417449582903612,-1.706347188631727e-05,0.0
1777404773.3949227,0.0,-0.23,9.73,0.0,0.0,0.0,0.004796351196732894,-2.4800109583402092e-06,0.00043660615220513844,-1.707337702041678e-05,0.0
1777404773.3979075,0.0,-0.19,9.69,0.0,0.0,0.0,0.004841376982982412,0.00024150772438237696,0.0004510565111800618,-1.6352533895659255e-05,0.0
1777404773.4059198,0.0,-0.19,9.69,0.0,0.0,0.0,0.004959826846489664,0.0008833691188374404,0.0004907961058787607,-9.274720125448269e-06,0.0
1777404773.4099584,-0.08,-0.3,9.69,0.0,0.0,0.0,0.004701712977632588,0.0007650687025787115,0.0005097843137263842,-6.184934846894117e-06,0.0
1777404773.4149144,-0.08,-0.3,9.69,0.0,0.0,0.0,0.004391298860382846,0.0006227976985221088,0.000531547621634151,-3.098345091077878e-06,0.0
1777404773.4188893,0.0,-0.3,9.69,0.0,0.0,0.0,0.004458946993533752,0.0005109728399066738,0.0005492715549199106,-1.0672717146788224e-06,0.0
1777404773.4219348,-0.04,-0.34,9.65,0.0,0.0,0.0,0.004390356099563169,0.00030762089525910056,0.0005626426431423714,-1.303941502391083e-07,0.0
1777404773.4249144,-0.04,-0.34,9.65,0.0,0.0,0.0,0.0043245946470885045,0.0001126574173183218,0.0005755278463381019,2.052705379253804e-07,0.0
1777404773.4308853,-0.04,-0.19,9.73,0.0,0.0,0.0,0.004195444353461235,0.0006074949298230669,0.0006005786553371832,3.832595362851969e-06,0.0
1777404773.4348142,-0.04,-0.19,9.73,0.0,0.0,0.0,0.004112162835536378,0.0009265868808370576,0.0006167349309354241,7.47306234123834e-06,0.0
1777404773.4387074,-0.04,-0.27,9.61,0.0,0.0,0.0,0.004031289856103701,0.0009312286117996188,0.00063242929454386,1.1098462884946181e-05,0.0
1777404773.4449368,-0.04,-0.27,9.61,0.0,0.0,0.0,0.0039044732584869067,0.0009385072916733406,0.0006567518227387038,1.6944800803428258e-05,0.0
1777404773.4488354,-0.04,-0.27,9.73,0.0,0.0,0.0,0.0038266934473974537,0.0009429714892326333,0.0006716706486635397,2.0621088881720155e-05,0.0
1777404773.4529283,-0.04,-0.34,9.69,0.0,0.0,0.0,0.003746670141585737,0.0006667893350271748,0.0006870055138332085,2.3350212119904966e-05,0.0
1777404773.4569192,-0.04,-0.34,9.69,0.0,0.0,0.0,0.0036702025052099767,0.00040287876138820093,0.000701652883154724,2.4958056374130957e-05,0.0
1777404773.461887,0.0,-0.19,9.65,0.0,0.0,0.0,0.0037716559247203546,0.0008111944824110592,0.0007203892987429774,2.898781869834895e-05,0.0
1777404773.465829,0.0,-0.19,9.65,0.0,0.0,0.0,0.0038505521726288254,0.0011287252123383053,0.000735568224643972,3.343726791824373e-05,0.0
1777404773.468938,0.0,-0.27,9.69,0.0,0.0,0.0,0.003911536099663716,0.0011304023168336752,0.0007477300379688322,3.695193366822941e-05,0.0
1777404773.473957,0.0,-0.27,9.69,0.0,0.0,0.0,0.004008008547716108,0.0011330553827179931,0.0007678460305001251,4.2638681424614374e-05,0.0
1777404773.477912,0.0,-0.27,9.73,0.0,0.0,0.0,0.00408250758666567,0.0011351041630966586,0.0007839918882747666,4.7127890565737045e-05,0.0
1777404773.4849255,0.0,-0.27,9.73,0.0,0.0,0.0,0.004211981149735581,0.0011386647848082101,0.0008135328680134244,5.5113983603986806e-05,0.0
1777404773.4889138,0.0,-0.27,9.69,0.0,0.0,0.0,0.004284133887532528,0.0011406490401160599,0.0008306191334988647,5.966319537858909e-05,0.0
1777404773.4919305,0.0,-0.34,9.69,0.0,0.0,0.0,0.004337618441544836,0.0009351735808327079,0.0008437044716481421,6.248434313475465e-05,0.0
1777404773.494912,0.0,-0.34,9.69,0.0,0.0,0.0,0.004389420216694241,0.0007361629741804081,0.0008567911958840968,6.467915733804702e-05,0.0
1777404773.5018456,0.0,-0.27,9.69,0.0,0.0,0.0,0.004507482531000287,0.0007582455603584147,0.0008880446784563067,6.993659632824502e-05,0.0
1777404773.5058925,0.0,-0.27,9.69,0.0,0.0,0.0,0.004575012615883384,0.0007708765080728006,0.0009065593746113791,7.305626954411771e-05,0.0
1777404773.5097032,0.0,-0.23,9.65,0.0,0.0,0.0,0.004637328315173639,0.0009319093984621473,0.0009242305826262059,7.660744464149274e-05,0.0
1777404773.5139308,0.0,-0.23,9.65,0.0,0.0,0.0,0.004705080448078508,0.001106990829240863,0.0009441219606725583,8.128740140764489e-05,0.0
1777404773.5179367,0.08,-0.3,9.69,0.0,0.0,0.0,0.00508205843639165,0.0009947663356590912,0.0009644802241289632,8.527234479080072e-05,0.0
1777404773.5238605,0.04,-0.38,9.77,0.0,0.0,0.0,0.005396155524844151,0.00036771128250019907,0.000996445689715215,8.745057377110352e-05,0.0
1777404773.5276804,0.04,-0.38,9.77,0.0,0.0,0.0,0.005594650827112616,-2.8559446811462174e-05,0.001017816934038945,8.734147832718404e-05,0.0
1777404773.5319183,0.04,-0.19,9.65,0.0,0.0,0.0,0.005810459647351382,0.00032970074154670196,0.001042441024288882,8.873871388306951e-05,0.0
1777404773.53493,0.04,-0.19,9.65,0.0,0.0,0.0,0.005960759229737372,0.0005792102687114571,0.0010603930636713498,9.048312347149303e-05,0.0
1777404773.5399325,0.0,-0.34,9.65,0.0,0.0,0.0,0.006009318829554419,0.00024999438928310474,0.0010904546728636522,9.173372006056671e-05,0.0
1777404773.544934,0.0,-0.34,9.65,0.0,0.0,0.0,0.006056898165140291,-7.257566620612484e-05,0.0011207485213086655,9.137072960358694e-05,0.0
1777404773.5489378,0.0,-0.27,9.77,0.0,0.0,0.0,0.006094223924833478,-5.097216626078973e-05,0.0011451483507844804,9.11666491201462e-05,0.0
1777404773.5549357,0.0,-0.27,9.77,0.0,0.0,0.0,0.006149021998665996,-1.925599504883824e-05,0.0011820295464299176,9.105115366072227e-05,0.0
1777404773.5589166,0.0,-0.23,9.61,0.0,0.0,0.0,0.006184664729118989,0.00015742369746851118,0.0012066499237278197,9.167783772478433e-05,0.0
1777404773.5629368,-0.04,-0.34,9.73,0.0,0.0,0.0,0.006062347390542866,-0.00010109824947784245,0.0012310218580700453,9.12714011186882e-05,0.0
1777404773.5668037,-0.04,-0.34,9.73,0.0,0.0,0.0,0.005947047448894259,-0.0003447886840865751,0.001254018560877857,8.993813398611981e-05,0.0
1777404773.5709376,0.0,-0.3,9.73,0.0,0.0,0.0,0.0059883011684985325,-0.0004380463093424597,0.0012787738370716177,8.812727693863615e-05,0.0
1777404773.5748136,0.0,-0.3,9.73,0.0,0.0,0.0,0.0060262069580604765,-0.0005237356472229151,0.0013021312395196018,8.609729284189377e-05,0.0
1777404773.5799325,0.0,-0.23,9.61,0.0,0.0,0.0,0.006075266474321597,-0.00028348605861563297,0.0013332295984377167,8.46461711114523e-05,0.0
1777404773.5849323,0.0,-0.23,9.61,0.0,0.0,0.0,0.006122227376659823,-5.3513602154075125e-05,0.0013638399763015847,8.437860973517316e-05,0.0
1777404773.5889337,0.0,-0.27,9.73,0.0,0.0,0.0,0.006159058330236839,-3.000262288898328e-05,0.001388484703044416,8.425855786960838e-05,0.0
1777404773.5959363,0.0,-0.27,9.73,0.0,0.0,0.0,0.006222225028607828,1.0319736197896896e-05,0.0014320564067919843,8.433082277264556e-05,0.0
1777404773.599941,-0.04,-0.34,9.65,0.0,0.0,0.0,0.006100642081892989,-0.00024180506113497883,0.0014564877510745058,8.336246196430067e-05,0.0
1777404773.6029332,0.0,-0.19,9.69,0.0,0.0,0.0,0.0061289097398842,1.3432126521667698e-05,0.0014748263877673985,8.340265294422175e-05,0.0
1777404773.6069217,0.0,-0.19,9.69,0.0,0.0,0.0,0.006165836581121194,0.00034685568461424775,0.0014994188541612452,8.478608837186642e-05,0.0
1777404773.610932,0.04,-0.34,9.65,0.0,0.0,0.0,0.006359433106284682,8.587321786377117e-05,0.0015249229721938948,8.513047766689285e-05,0.0
1777404773.614813,0.04,-0.34,9.65,0.0,0.0,0.0,0.006543033186653211,-0.00016163330029144975,0.001550316337627669,8.450318244409922e-05,0.0
1777404773.6179688,0.04,-0.34,9.77,0.0,0.0,0.0,0.006689336666840132,-0.0003588612366974243,0.0015714259329555938,8.33707210562439e-05,0.0
1777404773.6239398,0.04,-0.34,9.77,0.0,0.0,0.0,0.006960622846248203,-0.000724575116310918,0.0016129874980117843,7.904431571869787e-05,0.0
1777404773.6279218,0.0,-0.27,9.65,0.0,0.0,0.0,0.006981829813895734,-0.0006904242454881503,0.0016407896128684295,7.629500004006726e-05,0.0
1777404773.6339576,0.0,-0.27,9.65,0.0,0.0,0.0,0.007013331315578503,-0.0006396954599035378,0.0016831207113260486,7.24339231455651e-05,0.0
1777404773.637921,0.0,-0.23,9.69,0.0,0.0,0.0,0.00703360337059094,-0.000451682093810883,0.0017109981905055987,7.064369450989346e-05,0.0
1777404773.6409504,-0.04,-0.27,9.69,0.0,0.0,0.0,0.006930037372925849,-0.0004296047639607223,0.0017319916747309662,6.93422728363846e-05,0.0
1777404773.6449516,-0.04,-0.27,9.69,0.0,0.0,0.0,0.006795983879980844,-0.00040102836583743505,0.0017591833617126057,6.77377019622935e-05,0.0
1777404773.6499684,0.0,-0.3,9.69,0.0,0.0,0.0,0.006827922140538277,-0.000513408674115084,0.0017934377070536222,6.516203140509746e-05,0.0
1777404773.653924,0.0,-0.3,9.69,0.0,0.0,0.0,0.0068526008748453875,-0.0006002450803854853,0.0018205438732052793,6.278770037695177e-05,0.0
1777404773.6579356,0.0,-0.3,9.65,0.0,0.0,0.0,0.006877128600466653,-0.0006865501364078864,0.0018481323755721684,6.003351455847054e-05,0.0
1777404773.663944,0.0,-0.3,9.65,0.0,0.0,0.0,0.006913130071351823,-0.0008132275548367535,0.001889669133739468,5.5147329005529925e-05,0.0
1777404773.66794,0.04,-0.3,9.77,0.0,0.0,0.0,0.007093233198050978,-0.0008957898048351845,0.001918012951545553,5.1567846657794115e-05,0.0
1777404773.672948,0.0,-0.19,9.65,0.0,0.0,0.0,0.007118125833835637,-0.0004573335935068209,0.0019536603994033423,4.927752813734095e-05,0.0
1777404773.67694,0.0,-0.19,9.65,0.0,0.0,0.0,0.007137571977501753,-0.00011481130898254206,0.0019821541626573384,4.881919212793303e-05,0.0
1777404773.6809323,-0.04,-0.34,9.69,0.0,0.0,0.0,0.007000131427450185,-0.00036599033159503123,0.0020101009211070486,4.7358041934108546e-05,0.0
1777404773.68495,-0.04,-0.34,9.69,0.0,0.0,0.0,0.006864579012611151,-0.000613718698945545,0.0020376816318806415,4.489222459835264e-05,0.0
1777404773.6889403,0.0,-0.3,9.81,0.0,0.0,0.0,0.006889066848688309,-0.0006984065812642724,0.002065170202756679,4.210546127742052e-05,0.0
1777404773.6949396,0.0,-0.3,9.81,0.0,0.0,0.0,0.0069251485689814105,-0.0008231903503327726,0.0021067164315091203,3.716687342460309e-05,0.0
1777404773.69886,0.0,-0.3,9.65,0.0,0.0,0.0,0.006948254951060013,-0.0009031006600930349,0.002133955791402986,3.3626432828520935e-05,0.0
1777404773.7047286,0.0,-0.3,9.65,0.0,0.0,0.0,0.006982153164461917,-0.0010203330647183392,0.00217493176742743,2.76384313894164e-05,0.0
1777404773.707933,-0.04,-0.19,9.69,0.0,0.0,0.0,0.006874681352341186,-0.0007376342931398599,0.002196960623079158,2.5274796111716042e-05,0.0
1777404773.7109497,-0.04,-0.34,9.65,0.0,0.0,0.0,0.006775526291181341,-0.0009202686951528304,0.002217400422903472,2.249861207742364e-05,0.0
1777404773.713974,-0.04,-0.34,9.65,0.0,0.0,0.0,0.006678108579034309,-0.0010997030618440373,0.0022375972916390354,1.9172736475776355e-05,0.0
1777404773.720949,-0.04,-0.27,9.69,0.0,0.0,0.0,0.006457930726020183,-0.0010267696148127082,0.0022826409421206695,1.2011084606635307e-05,0.0
1777404773.724949,-0.04,-0.27,9.69,0.0,0.0,0.0,0.006334189643702028,-0.0009857806436273477,0.0023079773744947626,8.068012798264714e-06,0.0
1777404773.7289283,0.0,-0.3,9.69,0.0,0.0,0.0,0.006369539226367261,-0.0010628130301828622,0.0023333246023607675,3.838607326753314e-06,0.0
1777404773.734953,0.0,-0.3,9.69,0.0,0.0,0.0,0.006421985672492744,-0.0011771022128773605,0.002372014491304969,-3.252961576501677e-06,0.0
1777404773.7389505,0.0,-0.27,9.73,0.0,0.0,0.0,0.006456089996800878,-0.0011338925916994742,0.0023978231262957467,-7.785770139024823e-06,0.0
1777404773.7429476,0.0,-0.19,9.69,0.0,0.0,0.0,0.006489508247954056,-0.000778180555664115,0.00242376225845616,-1.0896225894189182e-05,0.0
1777404773.746946,0.0,-0.19,9.69,0.0,0.0,0.0,0.006522269854890421,-0.00042945800122200174,0.0024498416718073063,-1.2613421438073027e-05,0.0
1777404773.7519472,0.0,-0.34,9.65,0.0,0.0,0.0,0.0065624262747673075,-0.000737180262749004,0.0024826608126086213,-1.630011014528717e-05,0.0
1777404773.7547786,0.0,-0.34,9.65,0.0,0.0,0.0,0.006584706961724246,-0.0009079191732341673,0.0025013051406967707,-1.8870846100842364e-05,0.0
1777404773.7599485,0.04,-0.3,9.81,0.0,0.0,0.0,0.006827233751799118,-0.0010107719900905717,0.002536601041202316,-2.409640434200084e-05,0.0
1777404773.7648883,0.04,-0.3,9.81,0.0,0.0,0.0,0.007054332733181246,-0.0011070820510663553,0.002571447995523887,-2.9565162213639096e-05,0.0
1777404773.7687266,0.0,-0.34,9.69,0.0,0.0,0.0,0.00707680175585854,-0.001330881232909627,0.002598610888692233,-3.46734845881289e-05,0.0
1777404773.774943,0.0,-0.34,9.69,0.0,0.0,0.0,0.007112464849922892,-0.001686097896679665,0.002642825711579866,-4.5155156054485554e-05,0.0
1777404773.7789547,0.0,-0.15,9.65,0.0,0.0,0.0,0.007135018576865911,-0.0011637750676699384,0.0026714487733737525,-4.982379220689949e-05,0.0
1777404773.7819345,0.0,-0.27,9.73,0.0,0.0,0.0,0.0071514359636332455,-0.0011339832662523193,0.0026927583033156664,-5.320278496985169e-05,0.0
1777404773.7859457,0.0,-0.27,9.73,0.0,0.0,0.0,0.00717309398833113,-0.0010946815442400757,0.002721530689213227,-5.759372141611191e-05,0.0
1777404773.7909458,0.08,-0.34,9.69,0.0,0.0,0.0,0.007591560868968235,-0.0013896775665608503,0.002759489362343263,-6.454226828489256e-05,0.0
1777404773.7939632,0.08,-0.34,9.69,0.0,0.0,0.0,0.007839042964358105,-0.0015641387655557907,0.0027831430907704147,-6.926194053966334e-05,0.0
1777404773.799898,0.04,-0.34,9.69,0.0,0.0,0.0,0.008083418389331434,-0.0019004088668574987,0.0028311158773274307,-8.054032606293892e-05,0.0
1777404773.803951,0.04,-0.34,9.69,0.0,0.0,0.0,0.008246976744628544,-0.002125471533083051,0.002864541829442176,-8.915510841119309e-05,0.0
1777404773.807952,0.0,-0.23,9.73,0.0,0.0,0.0,0.008248363691394074,-0.001911894341455519,0.0028975427256827165,-9.680441064201973e-05,0.0
1777404773.814878,0.0,-0.23,9.73,0.0,0.0,0.0,0.008250716649350565,-0.0015495602094941214,0.002954687681952847,-0.00010753675719720605,0.0
1777404773.8187518,-0.04,-0.23,9.65,0.0,0.0,0.0,0.008100152422268095,-0.0013509557042759937,0.002986066255503313,-0.00011277012327726995,0.0
1777404773.8218782,-0.04,-0.34,9.73,0.0,0.0,0.0,0.007981069351395509,-0.0015309010643819753,0.0030110181336706677,-0.0001175563060759514,0.0
1777404773.8249516,-0.04,-0.34,9.73,0.0,0.0,0.0,0.00786634366930246,-0.0017042620133931616,0.003035194978324984,-0.00012279427681308712,0.0
1777404773.830788,0.0,-0.3,9.69,0.0,0.0,0.0,0.00788162661778294,-0.0017980959716624545,0.0030811941090452917,-0.00013328841154684157,0.0
1777404773.8339694,0.0,-0.3,9.69,0.0,0.0,0.0,0.007889791042442161,-0.0018482237518970446,0.0031062951440847994,-0.00013916845690009068,0.0
1777404773.8369548,0.0,-0.34,9.69,0.0,0.0,0.0,0.007897299302864156,-0.0020113535432902357,0.003129872353049735,-0.00014517330754255253,0.0
1777404773.8439562,0.0,-0.34,9.69,0.0,0.0,0.0,0.00791455515848157,-0.0023862665016811803,0.003185285319488021,-0.00016188051381285851,0.0
1777404773.8479626,-0.04,-0.23,9.69,0.0,0.0,0.0,0.00776718160574506,-0.002164622496951961,0.00321640364560433,-0.00017055282665398322,0.0
1777404773.8549645,-0.04,-0.23,9.69,0.0,0.0,0.0,0.00751477115782608,-0.001785007148923518,0.0032690211476649905,-0.00018305122685329778,0.0
1777404773.858965,-0.04,-0.27,9.58,0.0,0.0,0.0,0.007373444169011047,-0.0017292736108812335,0.0032985180605525246,-0.00018996905682389033,0.0
1777404773.861945,0.0,-0.23,9.73,0.0,0.0,0.0,0.007387088276930274,-0.0015717712077903143,0.003320531537966978,-0.0001946529253098587,0.0
1777404773.865959,0.0,-0.23,9.73,0.0,0.0,0.0,0.007405099154353231,-0.001363860474990095,0.0033502557185134266,-0.0002001274819840848,0.0
1777404773.869965,-0.04,-0.38,9.69,0.0,0.0,0.0,0.007265674239946669,-0.0017494109947512027,0.003379363080367461,-0.00020713588026537402,0.0
1777404773.873972,-0.04,-0.38,9.69,0.0,0.0,0.0,0.007129013428824468,-0.002127317963411744,0.0034079280579381913,-0.00021565975113717963,0.0
1777404773.8778925,0.04,-0.23,9.69,0.0,0.0,0.0,0.007305342145433343,-0.0019133679043740613,0.0034365690544514403,-0.00022316121546106437,0.0
1777404773.8839557,0.04,-0.23,9.69,0.0,0.0,0.0,0.007572584378481182,-0.0015891070996817988,0.0034824833213546393,-0.00023279632599478053,0.0
1777404773.887952,0.0,-0.23,9.65,0.0,0.0,0.0,0.007588547562694081,-0.0013796558623695944,0.0035128099820463483,-0.00023830994436031605,0.0
1777404773.8919635,-0.04,-0.23,9.69,0.0,0.0,0.0,0.0074470036912588486,-0.0011736221714960542,0.0035426828374963658,-0.00024301780364648632,0.0
1777404773.895978,-0.04,-0.23,9.69,0.0,0.0,0.0,0.007308183519307472,-0.0009715531443822297,0.0035720214820243014,-0.0002469180960061026,0.0
1777404773.9009593,0.0,-0.27,9.65,0.0,0.0,0.0,0.007334643253374459,-0.000921101774737917,0.0036085573891718884,-0.0002515063612771939,0.0
1777404773.9049425,0.0,-0.27,9.65,0.0,0.0,0.0,0.007355378500659003,-0.0008815654127030449,0.0036378557682618423,-0.0002550178648186706,0.0
1777404773.9088356,0.0,-0.38,9.65,0.0,0.0,0.0,0.007375239285710248,-0.0012633765737069891,0.003666568585047741,-0.00025993636287509694,0.0
1777404773.9139583,0.0,-0.38,9.65,0.0,0.0,0.0,0.007400849809995802,-0.0017557228725142726,0.0037044806341070295,-0.00026893033699782186,0.0
1777404773.917956,0.0,-0.19,9.73,0.0,0.0,0.0,0.007420436914426398,-0.001387881825752523,0.0037341460770937804,-0.0002744788147558047,0.0
1777404773.9239588,0.0,-0.19,9.73,0.0,0.0,0.0,0.007449258576979125,-0.000846618028422242,0.0037788614775970827,-0.0002795607787959856,0.0
1777404773.9279592,0.0,-0.23,9.61,0.0,0.0,0.0,0.0074680823726042105,-0.0006499284082468388,0.0038087369835522844,-0.00028216076886870654,0.0
1777404773.9318483,0.04,-0.3,9.73,0.0,0.0,0.0,0.007638468346361621,-0.0007293285925725862,0.0038384436275308445,-0.000284997188928398,0.0
1777404773.9339604,0.04,-0.3,9.73,0.0,0.0,0.0,0.007729153753098168,-0.0007715881627223508,0.003854768761116464,-0.00028662689901463813,0.0
1777404773.939959,0.0,-0.38,9.73,0.0,0.0,0.0,0.007746408222270795,-0.0013594981929866573,0.0039012364541764644,-0.00029478200044160774,0.0
1777404773.9439564,0.0,-0.38,9.73,0.0,0.0,0.0,0.0077576762135881765,-0.0017434314829732683,0.0039322464142072635,-0.0003017510642585199,0.0
1777404773.9479468,0.04,-0.15,9.69,0.0,0.0,0.0,0.007925123885668623,-0.0012195964925588976,0.003963870921747594,-0.0003066177564429582,0.0
1777404773.9547677,0.04,-0.15,9.69,0.0,0.0,0.0,0.008205622197285907,-0.000342099489753769,0.004019840790751403,-0.0003089511887126186,0.0
1777404773.957954,0.0,-0.27,9.65,0.0,0.0,0.0,0.008209129561268746,-0.0003150962553883574,0.0040459969319030205,-0.0003099551565597298,0.0
1777404773.9629009,0.0,-0.27,9.77,0.0,0.0,0.0,0.008214466197708008,-0.00027400943200830903,0.00408663346161957,-0.00031131066672416717,0.0
1777404773.9667964,0.0,-0.27,9.77,0.0,0.0,0.0,0.008218584535783361,-0.00024230230130020358,0.004118649131616347,-0.0003122545604669536,0.0
1777404773.9709606,0.0,-0.27,9.65,0.0,0.0,0.0,0.00822289889253516,-0.00020908602061908387,0.004152891082618711,-0.0003131252404262825,0.0
1777404773.9739509,0.0,-0.27,9.65,0.0,0.0,0.0,0.008225934988328897,-0.0001857110852900703,0.004177488650325682,-0.0003136805622226301,0.0
1777404773.9797692,-0.04,-0.27,9.69,0.0,0.0,0.0,0.008003644431202921,-0.00014113820350615536,0.004224056790999099,-0.0003145017560889698,0.0
1777404773.9848404,-0.04,-0.27,9.69,0.0,0.0,0.0,0.007813775649565972,-0.00010306641643710945,0.004263681722350348,-0.00031502442270484157,0.0
1777404773.9879732,0.0,-0.3,9.73,0.0,0.0,0.0,0.007821632585338035,-0.00017212205619403464,0.004288185490358423,-0.00031556365014719903,0.0
1777404773.9949644,0.0,-0.3,9.73,0.0,0.0,0.0,0.007838815321189734,-0.000323143376901833,0.004342987808374296,-0.00031782279331872223,0.0
1777404773.9988403,0.0,-0.27,9.65,0.0,0.0,0.0,0.007848151096588098,-0.00029124318952896745,0.00437340701317615,-0.0003189516434288174,0.0
1777404774.0019672,0.0,-0.27,9.73,0.0,0.0,0.0,0.007855531912265195,-0.00026602306661285564,0.0043979701590590795,-0.00031978346022574664,0.0
1777404774.0059545,0.0,-0.27,9.73,0.0,0.0,0.0,0.007864755551316363,-0.000234506047250593,0.004429329395738208,-0.0003207185090763352,0.0
1777404774.0108085,-0.04,-0.34,9.69,0.0,0.0,0.0,0.00768548401824266,-0.0005298879975543485,0.004466634457347333,-0.0003232905662620349,0.0
1777404774.0139878,-0.04,-0.34,9.69,0.0,0.0,0.0,0.0075704108724267034,-0.0007194916097727565,0.004490703153603926,-0.00032557805439268055,0.0
1777404774.0180223,0.0,-0.19,9.73,0.0,0.0,0.0,0.007585457731827081,-0.0003622105298287576,0.004521306828430066,-0.00032703939972810744,0.0
1777404774.0239837,0.0,-0.19,9.73,0.0,0.0,0.0,0.007607246352498285,0.00015515071591414243,0.004566656804921486,-0.0003261144814339835,0.0
1777404774.027972,0.0,-0.38,9.65,0.0,0.0,0.0,0.007621531684671382,-0.0002482654618648401,0.004597053500540398,-0.00032710463013233134,0.0
1777404774.0339868,0.0,-0.38,9.65,0.0,0.0,0.0,0.007642644941059573,-0.0008445014533968828,0.00464302266409484,-0.0003321841576692711,0.0
1777404774.0379806,0.04,-0.27,9.77,0.0,0.0,0.0,0.007812938422800245,-0.0008019488497305998,0.004674225583940499,-0.00033538694058196346,0.0
1777404774.0409822,0.04,-0.27,9.61,0.0,0.0,0.0,0.007938370637976219,-0.0007706060920113393,0.004698054110993407,-0.00033770006111362325,0.0
1777404774.044932,0.04,-0.27,9.61,0.0,0.0,0.0,0.008100114234090046,-0.0007301899171193834,0.004730046663846499,-0.00034058405001070836,0.0
1777404774.0499997,0.0,-0.27,9.69,0.0,0.0,0.0,0.008104839608258299,-0.0006793686875387155,0.004771120575206558,-0.0003440269718452542,0.0
1777404774.0539773,0.0,-0.27,9.69,0.0,0.0,0.0,0.008108474193735529,-0.000640278851180398,0.004803372332583727,-0.0003465737047654819,0.0
1777404774.057974,0.0,-0.34,9.73,0.0,0.0,0.0,0.008112053381358945,-0.0008759686622715606,0.0048357949855161566,-0.00035007481928992277,0.0
1777404774.063793,0.0,-0.34,9.73,0.0,0.0,0.0,0.008117159953780467,-0.0012122368929385313,0.00488302747172411,-0.00035712863646890114,0.0
1777404774.0669975,0.0,-0.27,9.65,0.0,0.0,0.0,0.008119916025693901,-0.0011738899933863378,0.00490904842568962,-0.00036089046570233433,0.0
1777404774.0739503,0.0,-0.27,9.65,0.0,0.0,0.0,0.008125776089510345,-0.0010923553725213544,0.004965545017811292,-0.0003684853532864169,0.0
1777404774.0778165,0.04,-0.27,9.69,0.0,0.0,0.0,0.008280524371368487,-0.0010479235055812393,0.004997559145353338,-0.0003725368306153147,0.0
1777404774.0809555,0.0,-0.34,9.73,0.0,0.0,0.0,0.008280604300757598,-0.0012279068451997901,0.005023552119688001,-0.00037639125354791574,0.0
1777404774.0839703,0.0,-0.34,9.73,0.0,0.0,0.0,0.008280679531881918,-0.001397310729666374,0.005048516736625793,-0.00038060387003366195,0.0
1777404774.0898554,0.0,-0.19,9.69,0.0,0.0,0.0,0.008280823451610764,-0.0008562729299435209,0.005097250411170976,-0.00038564314258108005,0.0
1777404774.0937736,0.0,-0.19,9.69,0.0,0.0,0.0,0.008280917353461655,-0.0005032674650013536,0.005129696460810389,-0.0003876150305319373,0.0
1777404774.0969796,-0.04,-0.34,9.65,0.0,0.0,0.0,0.008155316877651999,-0.0006914843654192729,0.005155842526058351,-0.00038983193952608577,0.0
1777404774.1039076,-0.04,-0.34,9.65,0.0,0.0,0.0,0.007889331553523537,-0.0010900730884427742,0.00521049955527757,-0.00039738392998838184,0.0
1777404774.107773,0.0,-0.34,9.77,0.0,0.0,0.0,0.007895419207258593,-0.0013080190099464023,0.005241019143654398,-0.000402440051864207,0.0
1777404774.1119795,-0.04,-0.27,9.58,0.0,0.0,0.0,0.007737019680837307,-0.0012518842204314207,0.0052735642901743,-0.0004077060014236742,0.0
1777404774.1149993,-0.04,-0.27,9.58,0.0,0.0,0.0,0.007625578166717318,-0.0012123907567848289,0.00529659208526489,-0.0004113671908189676,0.0
1777404774.120041,0.0,-0.15,9.65,0.0,0.0,0.0,0.0076408773082354015,-0.0005548826860980664,0.00533511432675238,-0.00041416468696617813,0.0
1777404774.124023,0.0,-0.15,9.65,0.0,0.0,0.0,0.007652719535436874,-4.594171377809574e-05,0.005365587969502372,-0.0004143476299535061,0.0
1777404774.12798,-0.04,-0.34,9.69,0.0,0.0,0.0,0.007509136259089092,-0.0002871146889910645,0.0053953018706626365,-0.00041548375229780556,0.0
1777404774.1339817,-0.04,-0.34,9.69,0.0,0.0,0.0,0.007295716160324696,-0.000645590700254265,0.005439088649804981,-0.00041935840103511705,0.0
1777404774.137974,0.0,-0.3,9.69,0.0,0.0,0.0,0.0073130880219795386,-0.0007227797582234894,0.00546828483084671,-0.00042224396847406574,0.0
1777404774.1438873,0.0,-0.3,9.69,0.0,0.0,0.0,0.007338303893852225,-0.0008348224071000287,0.0055116781121099,-0.0004271804884165627,0.0
1777404774.1470375,0.0,-0.27,9.69,0.0,0.0,0.0,0.007351468709945795,-0.0008007015327022843,0.005534836890315894,-0.00042970287815073443,0.0
1777404774.1509953,0.0,-0.23,9.69,0.0,0.0,0.0,0.007367677385357147,-0.0006035477756326557,0.005563996303795921,-0.0004320915684019661,0.0
1777404774.153976,0.0,-0.23,9.69,0.0,0.0,0.0,0.007379640520465151,-0.0004580345259057396,0.005585992865272355,-0.00043345683607042164,0.0
1777404774.159876,0.0,-0.23,9.73,0.0,0.0,0.0,0.0074028472610208566,-0.00017576000477534831,0.005629670734394022,-0.00043449384550945503,0.0
1777404774.163976,0.0,-0.23,9.73,0.0,0.0,0.0,0.0074186504633639285,1.6461792293025434e-05,0.005660086057977626,-0.0004344263546980425,0.0
1777404774.1679752,0.0,-0.34,9.65,0.0,0.0,0.0,0.007433757538136005,-0.00023090108222456582,0.005689815388265725,-0.0004353497819825776,0.0
1777404774.1739774,0.0,-0.34,9.65,0.0,0.0,0.0,0.007455977294618615,-0.0005947268339033994,0.0057345675636903065,-0.0004389194440870693,0.0
1777404774.177977,0.08,-0.3,9.77,0.0,0.0,0.0,0.007784065129657002,-0.0006755338289955042,0.005765701567476185,-0.00044162138355431554,0.0
1777404774.1827066,-0.04,-0.38,9.69,0.0,0.0,0.0,0.007608067534484621,-0.0011399676218825283,0.005801683994043637,-0.00044701287108485306,0.0
1777404774.1860073,-0.04,-0.38,9.69,0.0,0.0,0.0,0.007487697493983783,-0.0014576078396651266,0.0058263983886384756,-0.0004518239489018935,0.0
1777404774.1909783,0.0,-0.11,9.73,0.0,0.0,0.0,0.007504902056165617,-0.0006110938873579236,0.005863705462200872,-0.00045486171334419733,0.0
1777404774.1939788,0.0,-0.11,9.73,0.0,0.0,0.0,0.007515078987904572,-0.00011035956946869462,0.005886254440306125,-0.0004551928469915828,0.0
1777404774.199849,0.04,-0.3,9.69,0.0,0.0,0.0,0.007764698771557242,-0.00024334048038695204,0.005931834028350891,-0.00045662128087897084,0.0
1777404774.2039783,0.04,-0.3,9.69,0.0,0.0,0.0,0.007936785460148565,-0.0003350168862828187,0.0059646082679314675,-0.0004580047028890155,0.0
1777404774.207999,0.04,-0.38,9.73,0.0,0.0,0.0,0.0081009903399451,-0.0007377165537231242,0.005997179846217837,-0.0004609708331366053,0.0
1777404774.213966,0.04,-0.38,9.73,0.0,0.0,0.0,0.008339804643558392,-0.0013233900170466508,0.006046942641383456,-0.0004688673713838631,0.0
1777404774.2179646,0.0,-0.34,9.69,0.0,0.0,0.0,0.008339895428146938,-0.001551281632343107,0.006080291851674575,-0.00047507056875288037,0.0
1777404774.220984,0.04,-0.27,9.73,0.0,0.0,0.0,0.00845832045483235,-0.0015127875826316123,0.006105830336781997,-0.0004796381780502624,0.0
1777404774.2249644,0.04,-0.27,9.73,0.0,0.0,0.0,0.00861131822047533,-0.0014630556656437148,0.006140106812137822,-0.0004854617221562504,0.0
1777404774.2299678,0.0,-0.19,9.65,0.0,0.0,0.0,0.00860365817554545,-0.0010095211220621408,0.0061831548054334905,-0.000490512812937366,0.0
1777404774.2338912,0.0,-0.19,9.65,0.0,0.0,0.0,0.008597771745288193,-0.0006609984326408688,0.006216887441847175,-0.0004931061848549805,0.0
1777404774.236972,-0.08,-0.34,9.65,0.0,0.0,0.0,0.00835170365973141,-0.0008456802727510587,0.00624261774529944,-0.0004957115945926841,0.0
1777404774.243013,-0.08,-0.34,9.65,0.0,0.0,0.0,0.007878871703217159,-0.0012005555325571603,0.006290212524396142,-0.0005029639243066011,0.0
1777404774.246981,0.0,-0.3,9.77,0.0,0.0,0.0,0.007885587697437422,-0.0012734531089704615,0.006321502539628336,-0.0005080169867676424,0.0
1777404774.2537837,0.0,-0.3,9.77,0.0,0.0,0.0,0.00789687141514607,-0.001395930235500817,0.0063752233553079725,-0.0005175132172291313,0.0
1777404774.256987,0.0,-0.34,9.69,0.0,0.0,0.0,0.00790207857424293,-0.0015780233943391464,0.006400536810823722,-0.0005225682447918309,0.0
1777404774.2609673,0.0,-0.15,9.69,0.0,0.0,0.0,0.007908418984162828,-0.001058640327212564,0.006432013581825922,-0.000526781802422009,0.0
1777404774.263968,0.0,-0.15,9.69,0.0,0.0,0.0,0.007913103564926383,-0.0006748966961356461,0.006455758718436946,-0.0005288069893940461,0.0
1777404774.2699008,-0.04,-0.27,9.61,0.0,0.0,0.0,0.007689614221333504,-0.0006290628098075019,0.006501379722609191,-0.0005325390982157362,0.0
1777404774.273782,-0.04,-0.27,9.61,0.0,0.0,0.0,0.007546332620149549,-0.0005996781755515484,0.0065306686698870745,-0.0005348665787750384,0.0
1777404774.2769694,0.0,-0.27,9.69,0.0,0.0,0.0,0.007555963900994447,-0.0005760289150404307,0.006554752685111625,-0.0005367026236981473,0.0
1777404774.28397,0.0,-0.27,9.69,0.0,0.0,0.0,0.007576694489180533,-0.0005251257082440965,0.006607794734587726,-0.0005403788632294667,0.0
1777404774.2879689,0.0,-0.34,9.73,0.0,0.0,0.0,0.007588298874173752,-0.0007709462517542379,0.006638138493341894,-0.0005434616894944256,0.0
1777404774.29382,0.0,-0.34,9.73,0.0,0.0,0.0,0.007604938961693202,-0.0011234401892164802,0.006682635222014616,-0.0005500349721376393,0.0
1777404774.2969742,0.04,-0.23,9.65,0.0,0.0,0.0,0.0077373778739861405,-0.0009696371868191887,0.006707041061284454,-0.0005530934771915452,0.0
1777404774.305971,0.0,-0.23,9.69,0.0,0.0,0.0,0.007754897536339421,-0.0005397293130812778,0.0067768097424610605,-0.0005579492734402487,0.0
1777404774.310971,0.0,-0.27,9.69,0.0,0.0,0.0,0.007764439709698253,-0.0005015822854652267,0.00681563282957916,-0.000560457242269112,0.0
1777404774.313793,0.0,-0.27,9.69,0.0,0.0,0.0,0.0077697173341784,-0.00048048377056505943,0.006837558368206626,-0.0005618131301371368,0.0
1777404774.3169718,0.04,-0.3,9.69,0.0,0.0,0.0,0.007900153890957645,-0.0005506498332941278,0.006862671653230348,-0.0005635635550532399,0.0
1777404774.322972,0.04,-0.3,9.69,0.0,0.0,0.0,0.00814143813966191,-0.0006804444717617204,0.006911522564766772,-0.0005676464126670007,0.0
1777404774.3269713,0.0,-0.38,9.69,0.0,0.0,0.0,0.008142269656591095,-0.0010787633052837448,0.006944085400274084,-0.0005719606387418941,0.0
1777404774.3318362,0.0,-0.19,9.69,0.0,0.0,0.0,0.008143260938389187,-0.0006477636090997613,0.006983701803722149,-0.0005751119640735058,0.0
1777404774.3358226,0.0,-0.19,9.69,0.0,0.0,0.0,0.008144056956376485,-0.00030166272099428317,0.007016166935555849,-0.000576314499868485,0.0
1777404774.3389752,0.0,-0.27,9.61,0.0,0.0,0.0,0.008144673896025356,-0.00028058789033550243,0.007041843906735607,-0.0005771990837407809,0.0
1777404774.343956,0.0,-0.27,9.61,0.0,0.0,0.0,0.008145629104108279,-0.00024795771552292323,0.007082415676834752,-0.0005784341121590809,0.0
1777404774.347931,0.04,-0.27,9.77,0.0,0.0,0.0,0.008302192809430469,-0.00022243811047836757,0.007115416183836349,-0.0005793182846410697,0.0
1777404774.3537886,0.04,-0.27,9.77,0.0,0.0,0.0,0.008528301338853432,-0.00018558282300158645,0.007165372466355282,-0.0005804053742698438,0.0
1777404774.3569748,0.0,-0.42,9.65,0.0,0.0,0.0,0.008523930410034547,-0.0006343119961651312,0.007192531634121782,-0.0005824264355750689,0.0
1777404774.3629758,0.0,-0.42,9.65,0.0,0.0,0.0,0.008515862769148294,-0.0014625537667993646,0.007243635289436099,-0.0005912032143470272,0.0
1777404774.3669949,0.04,-0.19,9.73,0.0,0.0,0.0,0.008668113385465857,-0.0011002672475540517,0.007278472627726027,-0.0005956252126075297,0.0
1777404774.3699784,0.0,-0.27,9.65,0.0,0.0,0.0,0.00866192204151383,-0.0010706102738868243,0.0073043160793278905,-0.0005988194534082489,0.0
1777404774.3749464,0.0,-0.27,9.65,0.0,0.0,0.0,0.0086518190486059,-0.0010222162261724296,0.007347297692848465,-0.0006038977499515502,0.0
1777404774.3789835,-0.04,-0.27,9.73,0.0,0.0,0.0,0.008485517186159931,-0.0009836757797670502,0.007381554928974708,-0.0006078689885596234,0.0
1777404774.3839526,-0.04,-0.27,9.73,0.0,0.0,0.0,0.008284918228576696,-0.0009371869836705939,0.007422723682055075,-0.0006125259831679452,0.0
1777404774.387826,0.0,-0.27,9.69,0.0,0.0,0.0,0.008283517127276919,-0.0009016744684726585,0.007454808628508584,-0.0006160184823799258,0.0
1777404774.393978,0.0,-0.27,9.69,0.0,0.0,0.0,0.008281336225049868,-0.0008463970067390518,0.007505756676134886,-0.0006212256462769381,0.0
1777404774.3979783,0.0,-0.3,9.73,0.0,0.0,0.0,0.008279946543062031,-0.0009287794225179625,0.0075388780099961165,-0.0006249409375746138,0.0
1777404774.4020057,-0.04,-0.3,9.73,0.0,0.0,0.0,0.008120702628994251,-0.001010062751400464,0.007571583056842738,-0.000629008830602076,0.0
1777404774.4059858,-0.04,-0.3,9.73,0.0,0.0,0.0,0.007966472843094503,-0.0010887867044265822,0.0076032908914781434,-0.0006333423756297367,0.0
1777404774.4100382,-0.04,-0.27,9.61,0.0,0.0,0.0,0.007812584332400884,-0.001048195882051788,0.007634950612828293,-0.0006375900852395394,0.0
1777404774.4139545,-0.04,-0.27,9.61,0.0,0.0,0.0,0.007666839952620905,-0.0010097532185604776,0.007664975978910902,-0.000641544544994501,0.0
1777404774.4179783,0.0,-0.23,9.69,0.0,0.0,0.0,0.00767782144865476,-0.000813312436352036,0.007695869922837939,-0.0006448171437351533,0.0
1777404774.4239795,0.0,-0.23,9.69,0.0,0.0,0.0,0.007693872105284184,-0.0005261927639938376,0.007742042650127641,-0.000647974949669699,0.0
1777404774.427901,0.0,-0.34,9.69,0.0,0.0,0.0,0.007704150647107551,-0.0007650653162051349,0.007772254544602535,-0.0006509751600314044,0.0
1777404774.4339807,0.0,-0.34,9.69,0.0,0.0,0.0,0.0077197671816507125,-0.001127992424653598,0.007819188210624857,-0.000657832985985047,0.0
1777404774.4379911,0.0,-0.27,9.65,0.0,0.0,0.0,0.007729862554709518,-0.0010874920384678253,0.007850188352253306,-0.0006621943063802942,0.0
1777404774.440782,0.0,-0.27,9.69,0.0,0.0,0.0,0.007736747573928698,-0.001059870876213688,0.007871781056811775,-0.0006651523295652988,0.0
1777404774.444831,0.0,-0.27,9.69,0.0,0.0,0.0,0.007746535970345282,-0.0010206020118832793,0.007903145419969143,-0.0006692845678021557,0.0
1777404774.4499817,0.04,-0.23,9.69,0.0,0.0,0.0,0.007960650592976985,-0.0007697332903095157,0.00794414909910415,-0.0006732493061720609,0.0
1777404774.4529824,0.04,-0.23,9.69,0.0,0.0,0.0,0.008082894145450312,-0.0006265058761670958,0.00796840373246278,-0.000675129285057101,0.0
1777404774.457783,0.0,-0.27,9.65,0.0,0.0,0.0,0.008086365410731803,-0.0005901361639117425,0.008007222799355663,-0.0006779622679930929,0.0
1777404774.462983,0.0,-0.27,9.65,0.0,0.0,0.0,0.00809005024459689,-0.0005515288157218507,0.008049290326133563,-0.0006808301677616585,0.0
1777404774.4669828,0.0,-0.27,9.73,0.0,0.0,0.0,0.008092828055169997,-0.0005224246813353224,0.00808166122158644,-0.0006829198395829578,0.0
1777404774.4737773,0.0,-0.27,9.73,0.0,0.0,0.0,0.008097452171805757,-0.0004739761250193938,0.008136678977092984,-0.0006861402479298021,0.0
1777404774.4769826,0.0,-0.27,9.69,0.0,0.0,0.0,0.008099589981180806,-0.00045157751658058694,0.008162640587817193,-0.0006875876890625644,0.0
1777404774.4808064,0.0,-0.23,9.61,0.0,0.0,0.0,0.008102089271795346,-0.00027550025624269343,0.008193621009775415,-0.0006886411351431585,0.0
1777404774.4839838,0.0,-0.23,9.61,0.0,0.0,0.0,0.008104124555814525,-0.0001321126757742657,0.008219371090827083,-0.0006890609105409465,0.0
1777404774.4890122,0.04,-0.3,9.69,0.0,0.0,0.0,0.008304397790139363,-0.00025468342224495234,0.008261129640944536,-0.0006903415826282745,0.0
1777404774.4929843,0.04,-0.3,9.69,0.0,0.0,0.0,0.008459431740268555,-0.0003495669300671326,0.008294730956631923,-0.0006917300811860611,0.0
1777404774.4969847,0.0,-0.38,9.69,0.0,0.0,0.0,0.008455633575767257,-0.0007568502988452417,0.008328557087443567,-0.0006947578042991985,0.0
1777404774.502987,0.0,-0.38,9.69,0.0,0.0,0.0,0.008450048832010552,-0.0013557114725033334,0.008379275866851513,-0.0007028950390633623,0.0
1777404774.506914,0.0,-0.15,9.73,0.0,0.0,0.0,0.008446468034070995,-0.0008545421800036374,0.00841244508276652,-0.000706250819723715,0.0
1777404774.5117795,-0.04,-0.34,9.58,0.0,0.0,0.0,0.008251386728369003,-0.001151982902411166,0.008452593412585379,-0.000711855961142269,0.0
1777404774.5158012,-0.04,-0.34,9.58,0.0,0.0,0.0,0.008093369341300718,-0.0013929122195151832,0.008485142067630187,-0.0007174577590374102,0.0
1777404774.519987,0.0,-0.34,9.81,0.0,0.0,0.0,0.008096274790288262,-0.0016386672645701587,0.00851903238566462,-0.0007243170809091816,0.0
1777404774.5239427,0.0,-0.34,9.81,0.0,0.0,0.0,0.008098965467401055,-0.0018662560048707199,0.008551068674896313,-0.0007316992480999265,0.0
1777404774.5279944,-0.04,-0.27,9.65,0.0,0.0,0.0,0.007942840316056927,-0.0018167649863694325,0.008583250564509242,-0.0007390602081491653,0.0
1777404774.532995,-0.04,-0.27,9.65,0.0,0.0,0.0,0.0077540044006864485,-0.0017569047927949307,0.008622025171285479,-0.0007478457709324258,0.0
1777404774.536998,-0.04,-0.19,9.65,0.0,0.0,0.0,0.007605861751754966,-0.0013961052353556609,0.008652471800526461,-0.0007534344471231886,0.0
1777404774.5429509,-0.04,-0.19,9.65,0.0,0.0,0.0,0.007389968413735261,-0.0008702997271280958,0.008696463063762065,-0.0007586151978715689,0.0
1777404774.5468383,-0.04,-0.38,9.73,0.0,0.0,0.0,0.007251802038419534,-0.0012576339189367522,0.008724653827291946,-0.0007635041427473489,0.0
1777404774.5509884,0.0,-0.27,9.65,0.0,0.0,0.0,0.007269933521426508,-0.001215490059460968,0.008754825157936427,-0.0007685486114995035,0.0
1777404774.5550165,0.0,-0.27,9.65,0.0,0.0,0.0,0.007287179731416442,-0.001175403881732094,0.008784178514670293,-0.0007732832345935529,0.0
1777404774.5589402,0.0,-0.27,9.73,0.0,0.0,0.0,0.007303642854248537,-0.0011371378703472822,0.008812835486232766,-0.0007777449707796532,0.0
1777404774.5630016,0.0,-0.27,9.73,0.0,0.0,0.0,0.007320343365368173,-0.0010983200861909071,0.008842566771621008,-0.0007822057544205772,0.0
1777404774.5669987,-0.04,-0.34,9.69,0.0,0.0,0.0,0.007179764632627195,-0.0013350818047861226,0.008871264918933648,-0.0007875421931854449,0.0
1777404774.5730045,-0.04,-0.34,9.69,0.0,0.0,0.0,0.006972764649794488,-0.001683709728292547,0.008913141697900629,-0.000797654156470817,0.0
1777404774.577,-0.04,-0.23,9.69,0.0,0.0,0.0,0.006837809207235365,-0.0014802946213505982,0.008940461607638896,-0.0008035685530583302,0.0
1777404774.5828905,-0.04,-0.23,9.69,0.0,0.0,0.0,0.006642818323065292,-0.001186389530870205,0.008979591845291669,-0.0008105571085228865,0.0
1777404774.586786,0.04,-0.27,9.65,0.0,0.0,0.0,0.006821856642174711,-0.0011486186713926926,0.009006166532218628,-0.0008150315768665938,0.0
1777404774.5899937,0.08,-0.34,9.81,0.0,0.0,0.0,0.007092074605978287,-0.0013381861897719116,0.009028915663361442,-0.0008193240547120698,0.0
1777404774.5929928,0.08,-0.34,9.81,0.0,0.0,0.0,0.007339665681595313,-0.0015118801408212912,0.009050927814747891,-0.0008238582850137816,0.0
1777404774.598956,0.04,-0.3,9.65,0.0,0.0,0.0,0.007588365602258102,-0.0016165822411412663,0.009096179708850865,-0.0008334984911160158,0.0
1777404774.6029932,0.04,-0.3,9.65,0.0,0.0,0.0,0.007753366843320446,-0.00168604738792776,0.0091274811502242,-0.0008403053035024763,0.0
1777404774.6070206,-0.04,-0.19,9.65,0.0,0.0,0.0,0.007598930986759326,-0.0013198082756306355,0.009158084831366133,-0.0008456206553205497,0.0
1777404774.6138089,-0.04,-0.19,9.65,0.0,0.0,0.0,0.007343830598774007,-0.0007148468261150513,0.009207936617218635,-0.000850473216993034,0.0
1777404774.616994,0.04,-0.3,9.73,0.0,0.0,0.0,0.007476238556455588,-0.000780023815025237,0.009231748689704486,-0.0008529576192073041,0.0
1777404774.62195,0.0,-0.3,9.73,0.0,0.0,0.0,0.007483873174878315,-0.0008794127952712516,0.009268838817574615,-0.0008573159951798859,0.0
1777404774.6258094,0.0,-0.3,9.73,0.0,0.0,0.0,0.0074896997693347815,-0.0009552645601232281,0.009297745463317507,-0.0008610028578153254,0.0
1777404774.6299956,0.04,-0.3,9.69,0.0,0.0,0.0,0.007659990291614449,-0.001035890281739585,0.009329811357811604,-0.0008653392534525476,0.0
1777404774.634037,0.04,-0.3,9.69,0.0,0.0,0.0,0.007821105609435351,-0.0011121719126187563,0.009361419834733053,-0.0008698340220937335,0.0
1777404774.637998,0.0,-0.27,9.77,0.0,0.0,0.0,0.007820584994399568,-0.0010689857629320794,0.00939239784660271,-0.0008740683669255229,0.0
1777404774.643016,0.0,-0.27,9.77,0.0,0.0,0.0,0.007819938657757881,-0.0010153707325597202,0.009431638266212216,-0.0008791634930318291,0.0
1777404774.6469967,0.04,-0.15,9.69,0.0,0.0,0.0,0.00797547714587563,-0.000505567181939095,0.009463385742415072,-0.0008811759722583361,0.0
1777404774.652999,0.04,-0.15,9.69,0.0,0.0,0.0,0.008205314700355565,0.0002477640530355547,0.00951263558162116,-0.0008796888458995481,0.0
1777404774.657005,-0.04,-0.34,9.65,0.0,0.0,0.0,0.008041569238720974,-5.427452092187106e-06,0.009544851293195291,-0.0008797105890725525,0.0
1777404774.6599977,0.04,-0.34,9.77,0.0,0.0,0.0,0.008156318409991566,-0.0001907811732679382,0.00956926013639841,-0.0008802815265360409,0.0
1777404774.6629996,0.04,-0.34,9.77,0.0,0.0,0.0,0.008269122001384067,-0.0003729922096969858,0.00959408344799419,-0.000881401222417001,0.0
1777404774.6700003,0.0,-0.38,9.65,0.0,0.0,0.0,0.00825249889382159,-0.0010638480411407757,0.009651856591051843,-0.0008888488871623358,0.0
1777404774.6730192,0.0,-0.38,9.65,0.0,0.0,0.0,0.008245473993361932,-0.0013558026849777966,0.009676748490090146,-0.0008929418602985675,0.0
1777404774.677034,-0.04,-0.15,9.69,0.0,0.0,0.0,0.008078941098136382,-0.0008313831328016423,0.009709183260948795,-0.0008962796394803451,0.0
1777404774.683009,-0.04,-0.15,9.69,0.0,0.0,0.0,0.00783605189631308,-6.651414835215775e-05,0.009756003733802815,-0.0008966770620495851,0.0
1777404774.686942,-0.04,-0.3,9.65,0.0,0.0,0.0,0.007679362047574823,-0.00015126991181269733,0.009786208133793575,-0.0008972720355505937,0.0
1777404774.69301,-0.04,-0.3,9.65,0.0,0.0,0.0,0.007442461091435367,-0.00027941300189680395,0.009831368922624838,-0.0008989675112031156,0.0
1777404774.6970017,0.0,-0.27,9.73,0.0,0.0,0.0,0.007446212152123245,-0.0002446681619722111,0.009861091251728987,-0.0008999441295807389,0.0
1777404774.7000089,-0.04,-0.34,9.69,0.0,0.0,0.0,0.007331100384731134,-0.0004253078994343202,0.009883137142811898,-0.0009012231042415086,0.0
1777404774.7030132,-0.04,-0.34,9.69,0.0,0.0,0.0,0.007218398179602313,-0.0006021664188289793,0.009904823466802999,-0.0009030322003498651,0.0
1777404774.709003,0.0,-0.23,9.69,0.0,0.0,0.0,0.007232994061573175,-0.0003020231477480907,0.009948147582033775,-0.0009048412555687703,0.0
1777404774.712926,0.0,-0.23,9.69,0.0,0.0,0.0,0.0072423622671660415,-0.00010937950508130558,0.009976558929600367,-0.0009052703447279271,0.0
1777404774.716755,0.0,-0.27,9.69,0.0,0.0,0.0,0.0072513232683927955,-7.520632648204349e-05,0.010004324263655884,-0.0009055583099310458,0.0
1777404774.7230034,0.0,-0.27,9.69,0.0,0.0,0.0,0.00726565408543811,-2.055511530926191e-05,0.010049723515181562,-0.0009056867480371118,0.0
1777404774.7269368,0.0,-0.27,9.69,0.0,0.0,0.0,0.0072744949440775065,1.3159894164562042e-05,0.010078337229778165,-0.000905634984518319,0.0
1777404774.731005,0.04,-0.34,9.69,0.0,0.0,0.0,0.007442926638929203,-0.0002317420097746189,0.010108616069185145,-0.0009065777425808686,0.0
1777404774.7350204,0.04,-0.34,9.69,0.0,0.0,0.0,0.007605851802886211,-0.0004686373452268143,0.010139156954172073,-0.0009084595303979439,0.0
1777404774.7400095,0.0,-0.34,9.73,0.0,0.0,0.0,0.007608661305226876,-0.0007570904003199853,0.010177117685314398,-0.0009122367658384595,0.0
1777404774.7430065,0.0,-0.34,9.73,0.0,0.0,0.0,0.007610315187265188,-0.0009268953226401007,0.010199925202820027,-0.0009150145983955622,0.0
1777404774.7470446,0.0,-0.19,9.65,0.0,0.0,0.0,0.007612499082577935,-0.0005575169466335217,0.010230665200913066,-0.0009172659050545769,0.0
1777404774.7528565,0.0,-0.19,9.65,0.0,0.0,0.0,0.007615579443900369,-3.651264017581789e-05,0.010274926413286789,-0.0009174781139525409,0.0
1777404774.7560096,0.0,-0.19,9.65,0.0,0.0,0.0,0.007617217177129207,0.0002404893007457504,0.010298944151907435,-0.0009167198305752839,0.0
1777404774.7630348,0.0,-0.19,9.65,0.0,0.0,0.0,0.007620793154321989,0.0008453207871254125,0.01035248206691914,-0.0009107812476033683,0.0
1777404774.7670064,0.04,-0.3,9.73,0.0,0.0,0.0,0.007778460134000184,0.0007522753391849041,0.01038337481787667,-0.0009077935284012928,0.0
1777404774.7700715,0.04,-0.38,9.69,0.0,0.0,0.0,0.007897707784193967,0.0004415980739624016,0.010407582155082938,-0.0009064399820587147,0.0
1777404774.773007,0.04,-0.38,9.69,0.0,0.0,0.0,0.008009625451260095,0.00015001769751319028,0.010431093686091637,-0.0009059996186773808,0.0
1777404774.7800076,0.04,-0.19,9.73,0.0,0.0,0.0,0.008271200637168267,0.0007720603759237459,0.010488997754158513,-0.000900594667386714,0.0
1777404774.7840302,0.04,-0.19,9.73,0.0,0.0,0.0,0.008418495893303875,0.0011223380038480055,0.01052286198114631,-0.000896079952477894,0.0
1777404774.7878792,0.04,-0.23,9.65,0.0,0.0,0.0,0.008556616799109481,0.001299916476417781,0.010555796651977232,-0.000891076535559309,0.0
1777404774.7928026,0.04,-0.23,9.65,0.0,0.0,0.0,0.008729755598092883,0.0015225165476141726,0.010598776238840897,-0.0008835806633697318,0.0
1777404774.7960231,-0.08,-0.27,9.73,0.0,0.0,0.0,0.008462009905350495,0.0015389701409248193,0.010626028633946611,-0.0008786243205143707,0.0
1777404774.8029363,-0.08,-0.27,9.73,0.0,0.0,0.0,0.007898767158487665,0.00157358271301564,0.010680634273530082,-0.0008677458519182458,0.0
1777404774.806803,0.0,-0.3,9.73,0.0,0.0,0.0,0.0078931828224527,0.001478874804819454,0.010711154626612391,-0.0008620275273560391,0.0
1777404774.809985,-0.04,-0.34,9.69,0.0,0.0,0.0,0.007763947482429125,0.0012777653539201616,0.010735858997850265,-0.0008579617618766131,0.0
1777404774.8120654,-0.04,-0.34,9.69,0.0,0.0,0.0,0.007681139642963757,0.0011489040136551923,0.010751839152012792,-0.0008555715354115893,0.0
1777404774.817036,-0.04,-0.23,9.73,0.0,0.0,0.0,0.007487253523271972,0.001383013661646438,0.010789054924034366,-0.000848697196112863,0.0
1777404774.8230186,-0.04,-0.23,9.73,0.0,0.0,0.0,0.007258556251907936,0.0016591563673785676,0.010832480234176198,-0.0008387710651679838,0.0
1777404774.8270187,-0.04,-0.23,9.61,0.0,0.0,0.0,0.0071087000704004675,0.0018401016457605147,0.010860916363217198,-0.0008314103146328367,0.0
1777404774.8330178,-0.04,-0.23,9.61,0.0,0.0,0.0,0.006888455248949217,0.0021060383600741174,0.010902240814419128,-0.0008187760045741989,0.0
1777404774.837013,0.0,-0.27,9.73,0.0,0.0,0.0,0.006901324571566852,0.002122989634695197,0.010929812849218167,-0.0008102942785694583,0.0
1777404774.841019,-0.04,-0.38,9.65,0.0,0.0,0.0,0.00675693874492192,0.0017078095085616195,0.010956880530719597,-0.0008034529491467812,0.0
1777404774.845019,-0.04,-0.38,9.65,0.0,0.0,0.0,0.006615642750905749,0.0013015141679388496,0.010983344338320261,-0.0007982466491957815,0.0
1777404774.8499331,0.0,-0.27,9.69,0.0,0.0,0.0,0.006638169221543398,0.0013421154500499362,0.011015964602808775,-0.0007916514330309592,0.0
1777404774.853032,0.0,-0.27,9.69,0.0,0.0,0.0,0.006652091063474464,0.0013672079130833796,0.011036579198136878,-0.0007874145039828363,0.0
1777404774.857055,0.0,-0.27,9.69,0.0,0.0,0.0,0.006669801878532536,0.0013991295491957065,0.011063410721816725,-0.0007817860343050115,0.0
1777404774.8630142,0.0,-0.27,9.69,0.0,0.0,0.0,0.006695513262751643,0.0014454712589530149,0.011103311109104456,-0.0007731720773487369,0.0
1777404774.8670144,0.04,-0.23,9.69,0.0,0.0,0.0,0.006869234288455421,0.0016327635144964556,0.01113078933025669,-0.0007666407180943239,0.0
1777404774.873014,0.04,-0.23,9.69,0.0,0.0,0.0,0.007124573755197207,0.0019080503110231713,0.011173533674485384,-0.0007551932459924955,0.0
1777404774.8770168,0.0,-0.27,9.65,0.0,0.0,0.0,0.007134614679734981,0.0019311335899308386,0.011202092178079322,-0.0007474632860655687,0.0
1777404774.8800142,0.0,-0.3,9.73,0.0,0.0,0.0,0.007141983183709197,0.001859949676374944,0.011223499546878912,-0.0007418882759252961,0.0
1777404774.8839357,0.0,-0.3,9.73,0.0,0.0,0.0,0.007151430623281306,0.0017686820697917426,0.01125154394492248,-0.0007349523736435505,0.0
1777404774.8890424,-0.04,-0.27,9.69,0.0,0.0,0.0,0.006963305111444989,0.0018023447264331977,0.011287103368412536,-0.0007257483622758784,0.0
1777404774.8938177,-0.04,-0.27,9.69,0.0,0.0,0.0,0.0067909064672954855,0.0018331932610461238,0.011319531887097271,-0.0007169943406728918,0.0
1777404774.89702,0.0,-0.19,9.69,0.0,0.0,0.0,0.006803139069292163,0.002104538548892194,0.011341318520583716,-0.0007102546857054121,0.0
1777404774.9020188,0.0,-0.19,9.69,0.0,0.0,0.0,0.006821851052525717,0.002519610377278219,0.011375418797809032,-0.0006976599498040527,0.0
1777404774.906017,0.04,-0.3,9.69,0.0,0.0,0.0,0.006993251357587405,0.002413957828916189,0.01140337977185067,-0.0006880082715301544,0.0
1777404774.9130166,0.04,-0.3,9.69,0.0,0.0,0.0,0.007287308051259499,0.00223269888052524,0.011454387230959233,-0.0006723805121368296,0.0
1777404774.9169736,0.0,-0.34,9.69,0.0,0.0,0.0,0.007295107051606503,0.001977161228610716,0.011483254211448848,-0.0006645568195977928,0.0
1777404774.920019,0.04,-0.15,9.69,0.0,0.0,0.0,0.007420365660508181,0.002351472138899145,0.011505851603192906,-0.0006573958332624774,0.0
1777404774.923028,0.04,-0.15,9.69,0.0,0.0,0.0,0.007541658318841315,0.002713931579811637,0.011528545063095216,-0.0006492293936174725,0.0
1777404774.9289522,0.0,-0.38,9.61,0.0,0.0,0.0,0.007543451553389181,0.0020779429152951623,0.011573234166269096,-0.0006369191925544942,0.0
1777404774.9328125,0.0,-0.38,9.61,0.0,0.0,0.0,0.007544596658643254,0.0016718198221752929,0.011602358083967979,-0.0006304655748050797,0.0
1777404774.9360197,0.04,-0.27,9.77,0.0,0.0,0.0,0.007671251524528836,0.0016868850691956017,0.011626961373454854,-0.0006250553856650414,0.0
1777404774.943021,0.04,-0.27,9.77,0.0,0.0,0.0,0.00794221196578397,0.0017191150664538845,0.011682567976263618,-0.0006130191734492638,0.0
1777404774.947028,-0.04,-0.27,9.58,0.0,0.0,0.0,0.00778004171902585,0.0017371912153078056,0.011713741534768188,-0.0006060584868694491,0.0
1777404774.951093,-0.04,-0.23,9.69,0.0,0.0,0.0,0.007618807478095145,0.0019145124747107043,0.011744712267338244,-0.0005982759232560778,0.0
1777404774.955029,-0.04,-0.23,9.69,0.0,0.0,0.0,0.00746581159763447,0.002082773397763655,0.011774098092415622,-0.0005900780181868028,0.0
1777404774.9590218,0.0,-0.3,9.73,0.0,0.0,0.0,0.007470231702138269,0.0019761404995462446,0.011803925203258257,-0.0005821876924150179,0.0
1777404774.9630227,0.0,-0.3,9.73,0.0,0.0,0.0,0.007474572198836465,0.0018714281014040918,0.01183383023543253,-0.0005747002916520636,0.0
1777404774.967023,0.0,-0.27,9.65,0.0,0.0,0.0,0.007478825125153746,0.0018864337920951313,0.011863746933876379,-0.0005671542038711656,0.0
1777404774.9720218,0.0,-0.27,9.65,0.0,0.0,0.0,0.007484033593622725,0.0019048109425531504,0.01190115903666089,-0.0005576322018816789,0.0
1777404774.9760222,0.0,-0.27,9.73,0.0,0.0,0.0,0.007488118347502259,0.0019192232668429582,0.01193111469503776,-0.0005499544924942911,0.0
1777404774.983024,0.0,-0.27,9.73,0.0,0.0,0.0,0.007495124595063894,0.001943943559641719,0.01198359284730885,-0.0005363437025954191,0.0
1777404774.9869218,0.0,-0.3,9.69,0.0,0.0,0.0,0.007498947056961856,0.0018428320162530189,0.012012823033159533,-0.00052916051782061,0.0
1777404774.990024,0.0,-0.19,9.69,0.0,0.0,0.0,0.007501928469692418,0.002098396072339126,0.012036096284990501,-0.0005226506583318185,0.0
1777404774.9930084,0.0,-0.19,9.69,0.0,0.0,0.0,0.007504739104205597,0.0023393211710348847,0.012058492567989383,-0.00051566945642136,0.0
1777404774.999025,0.0,-0.3,9.65,0.0,0.0,0.0,0.00751029239885472,0.0021667410350068705,0.01210367997905389,-0.0005026327578989274,0.0
1777404775.0030234,0.0,-0.3,9.65,0.0,0.0,0.0,0.007513908906076169,0.0020543505807523927,0.012133722687535415,-0.0004944188899391377,0.0
1777404775.007027,0.04,-0.34,9.77,0.0,0.0,0.0,0.00767439590402683,0.0017871252717577806,0.012164447321710816,-0.00048726408962820254,0.0
1777404775.012026,0.04,-0.34,9.77,0.0,0.0,0.0,0.00787078642008024,0.0014601173707680804,0.012203794648384381,-0.00047996472815362533,0.0
1777404775.0160258,0.0,-0.34,9.69,0.0,0.0,0.0,0.007867982635616385,0.0012037187225392009,0.012235264297864987,-0.00047515020224198003,0.0
1777404775.021027,0.0,-0.19,9.65,0.0,0.0,0.0,0.007864546853131624,0.0016247175930348618,0.012274597307427037,-0.0004670244915283331,0.0
1777404775.0250251,0.0,-0.19,9.65,0.0,0.0,0.0,0.007861855222118744,0.0019545328887470657,0.012306029328143635,-0.00045921018860432003,0.0
1777404775.030027,0.0,-0.3,9.69,0.0,0.0,0.0,0.007858555182016244,0.0018197065061646793,0.012345336118772907,-0.00045010841086173657,0.0
1777404775.0328212,0.0,-0.3,9.69,0.0,0.0,0.0,0.007856748473374206,0.0017458916484599147,0.012367289961915403,-0.0004452299256303489,0.0
1777404775.0380273,0.04,-0.3,9.73,0.0,0.0,0.0,0.008057529082634386,0.0016111147876933264,0.012409238329284198,-0.00043684228789496503,0.0
1777404775.0429118,0.04,-0.3,9.73,0.0,0.0,0.0,0.00824213819121998,0.0014871932784611141,0.012449496900223149,-0.00042957811994342104,0.0
1777404775.0460775,0.04,-0.34,9.65,0.0,0.0,0.0,0.008359393765434044,0.001284387496004867,0.012475960416081186,-0.0004255121063278241,0.0
1777404775.053028,0.04,-0.34,9.65,0.0,0.0,0.0,0.00861168964734106,0.0008480153739663045,0.01253581697113512,-0.0004196178763918825,0.0
1777404775.0569687,0.0,-0.27,9.73,0.0,0.0,0.0,0.008597394701452713,0.0008758904701044671,0.012569695712310203,-0.0004161663579302053,0.0
1777404775.0608163,0.0,-0.19,9.65,0.0,0.0,0.0,0.008583716216456875,0.0012042152335030648,0.012602722410494498,-0.0004115330205664204,0.0
1777404775.0640297,0.0,-0.19,9.65,0.0,0.0,0.0,0.008572520811303917,0.0014729386154503058,0.012630269396953933,-0.00040679987135762695,0.0
1777404775.0690355,-0.04,-0.34,9.65,0.0,0.0,0.0,0.008359200646034836,0.0011473250356853694,0.012672114188548474,-0.0004010565498317552,0.0
1777404775.0720377,-0.04,-0.34,9.65,0.0,0.0,0.0,0.008233824147147099,0.0009559493606771738,0.012696833501612305,-0.00039818663044831353,0.0
1777404775.07703,0.04,-0.3,9.77,0.0,0.0,0.0,0.008420899784990365,0.0008397751176695168,0.01273887271016703,-0.00039399426594901113,0.0
1777404775.0820782,0.04,-0.3,9.77,0.0,0.0,0.0,0.008606291482997885,0.000724646603747398,0.012782319636250832,-0.00039033605061990115,0.0
1777404775.0860329,0.0,-0.34,9.65,0.0,0.0,0.0,0.008593594276511737,0.0004812403115820493,0.012816304285018423,-0.0003884329141166311,0.0
1777404775.0929306,0.0,-0.34,9.65,0.0,0.0,0.0,0.008571890772367904,6.518269478196568e-05,0.012875430512381861,-0.00038798330423076276,0.0
1777404775.0967758,-0.04,-0.11,9.69,0.0,0.0,0.0,0.008409301400075184,0.0007045955930710202,0.012907766082950998,-0.00038527398279744526,0.0
1777404775.100042,-0.04,-0.3,9.65,0.0,0.0,0.0,0.00827395139310581,0.000628693138886572,0.012934791576116383,-0.0003832204606868052,0.0
1777404775.103039,-0.04,-0.3,9.65,0.0,0.0,0.0,0.008152249013846471,0.0005604440898269704,0.012959223226779771,-0.00038154085372242564,0.0
1777404775.1089318,-0.04,-0.3,9.73,0.0,0.0,0.0,0.00791773540321335,0.0004289320272473387,0.013005880490589409,-0.00037901326297424783,0.0
1777404775.11204,-0.04,-0.3,9.73,0.0,0.0,0.0,0.007796510008206572,0.00036095046450847944,0.013030114094299819,-0.0003778913339948994,0.0
1777404775.1150396,-0.04,-0.3,9.69,0.0,0.0,0.0,0.007681864463933452,0.0002966587931115908,0.013053156185865129,-0.0003770014928493513,0.0
1777404775.123066,-0.04,-0.3,9.69,0.0,0.0,0.0,0.0073812244986687274,0.0001280639647811935,0.013112400561749109,-0.00037597360517731824,0.0
1777404775.1270354,0.0,-0.23,9.69,0.0,0.0,0.0,0.00739111855130038,0.0003186560516041597,0.013141739096285614,-0.0003747087219921324,0.0
1777404775.132054,0.0,-0.23,9.69,0.0,0.0,0.0,0.0074033778108197725,0.0005548098241473136,0.013178894510608887,-0.0003719242917747945,0.0
1777404775.1360347,0.04,-0.27,9.69,0.0,0.0,0.0,0.0075689478383310915,0.000582330243365208,0.013209023741372507,-0.0003696062466967016,0.0
1777404775.1390436,-0.04,-0.27,9.65,0.0,0.0,0.0,0.007455700963534814,0.0006027160565371792,0.01323145677106225,-0.0003677927690294893,0.0
1777404775.1420455,-0.04,-0.27,9.65,0.0,0.0,0.0,0.007344974056042837,0.0006226482449821335,0.01325350585676029,-0.0003659236236235841,0.0
1777404775.1480348,0.04,-0.34,9.69,0.0,0.0,0.0,0.007598037179576923,0.0002507538191603855,0.013299012880568806,-0.0003644217804831899,0.0
1777404775.1530378,0.04,-0.34,9.69,0.0,0.0,0.0,0.007805197366375,-5.368294604859059e-05,0.013338062091483421,-0.00036469035494509906,0.0
1777404775.1570132,0.0,-0.34,9.69,0.0,0.0,0.0,0.007810680417771514,-0.0002907519057623048,0.013369112603150178,-0.0003658462075672935,0.0
1777404775.1628509,0.0,-0.34,9.69,0.0,0.0,0.0,0.007818570993708588,-0.0006319142428750844,0.01341475491014103,-0.0003695351200154128,0.0
1777404775.166058,0.04,-0.19,9.65,0.0,0.0,0.0,0.007948541859508962,-0.00034413994475537775,0.013440247527055329,-0.00037063884796094306,0.0
1777404775.172037,0.04,-0.19,9.65,0.0,0.0,0.0,0.008185985645833857,0.00018159494615072746,0.013489190083923066,-0.0003695531239732155,0.0
1777404775.1760392,0.0,-0.23,9.69,0.0,0.0,0.0,0.008184864410821746,0.00036960127492825345,0.013521948634296255,-0.0003680738567092736,0.0
1777404775.1790392,0.04,-0.34,9.73,0.0,0.0,0.0,0.008301641600092766,0.00018430409226182415,0.013546853733271906,-0.00036752094056563436,0.0
1777404775.182854,0.04,-0.34,9.73,0.0,0.0,0.0,0.008447160659758155,-4.659949386307541e-05,0.01357907709394298,-0.0003676987035274533,0.0
1777404775.1860385,0.0,-0.38,9.69,0.0,0.0,0.0,0.008441377534281595,-0.0003603401027286653,0.013605959141530708,-0.00036884622710994683,0.0
1777404775.1920168,0.0,-0.38,9.69,0.0,0.0,0.0,0.008430738046829452,-0.0009375434307183766,0.013656361009522215,-0.00037445118600783867,0.0
1777404775.195882,0.04,-0.19,9.73,0.0,0.0,0.0,0.00857551425231846,-0.0005835569226926102,0.01368950744741956,-0.00037670677473738534,0.0
1777404775.202059,0.04,-0.19,9.73,0.0,0.0,0.0,0.008802250293101404,-2.917370033059892e-05,0.013743878494581061,-0.00037688697918326366,0.0
1777404775.2060435,0.0,-0.27,9.65,0.0,0.0,0.0,0.008789391146337882,8.89905312727102e-06,0.01377889939550708,-0.0003768515213395158,0.0
1777404775.2090409,0.0,-0.27,9.73,0.0,0.0,0.0,0.008779911018929505,3.696736591705652e-05,0.013805216286540724,-0.00037674071541693384,0.0
1777404775.21198,0.0,-0.27,9.73,0.0,0.0,0.0,0.008770800806514881,6.394045189152566e-05,0.013830995636903196,-0.0003765527800906154,0.0
1777404775.2180405,0.0,-0.27,9.65,0.0,0.0,0.0,0.008752392221214753,0.00011844372046204234,0.01388403830092351,-0.00037583496828431223,0.0
1777404775.2220454,0.0,-0.27,9.65,0.0,0.0,0.0,0.008740470317616888,0.00015374152868969043,0.013919043493774416,-0.00037521924033542505,0.0
1777404775.2260406,0.0,-0.3,9.69,0.0,0.0,0.0,0.008728815368705253,7.079065428803067e-05,0.01395391668349395,-0.0003749364189200235,0.0
1777404775.2320418,0.0,-0.3,9.69,0.0,0.0,0.0,0.00871165839641465,-5.13193493148156e-05,0.014006197384534253,-0.0003752443983467897,0.0
1777404775.2359655,-0.04,-0.27,9.77,0.0,0.0,0.0,0.008546858120164312,-1.4203667098308376e-05,0.014039732303339266,-0.00037530012862991576,0.0
1777404775.243049,-0.04,-0.27,9.77,0.0,0.0,0.0,0.00825529271436437,5.146156838078144e-05,0.014098207975713935,-0.00037493560493382863,0.0
1777404775.24691,-0.08,-0.27,9.58,0.0,0.0,0.0,0.007948179693508061,8.653997695742848e-05,0.014128897398830706,-0.00037460145773638527,0.0
1777404775.249047,0.0,-0.23,9.73,0.0,0.0,0.0,0.007949146252150633,0.00018933385112028468,0.014145884292927563,-0.00037419686157273306,0.0
1777404775.2520442,0.0,-0.23,9.73,0.0,0.0,0.0,0.007950474780157086,0.0003306233028952752,0.014169713137584831,-0.0003732059306481514,0.0
1777404775.257915,0.0,-0.38,9.69,0.0,0.0,0.0,0.007953025046656034,-0.00026116530491163126,0.014216403908866278,-0.00037473918490634156,0.0
1777404775.2620454,0.0,-0.38,9.69,0.0,0.0,0.0,0.007954783380009317,-0.0006691860539700259,0.014249260055505931,-0.00037750316653451557,0.0
1777404775.2660446,0.04,-0.19,9.65,0.0,0.0,0.0,0.008113221783070832,-0.00031169444607097454,0.01428170672179174,-0.0003787497053257893,0.0
1777404775.272066,0.04,-0.19,9.65,0.0,0.0,0.0,0.008347005609323794,0.00021580238760712686,0.014331968213011517,-0.0003774502513278422,0.0
1777404775.2760446,0.0,-0.3,9.69,0.0,0.0,0.0,0.00834242379630745,0.00012847527599707157,0.01436515846958066,-0.00037693911362047454,0.0
1777404775.2808404,0.04,-0.27,9.77,0.0,0.0,0.0,0.008525006162311806,0.0001663101613680756,0.014406042606485115,-0.0003761415250584822,0.0
1777404775.2840474,0.04,-0.27,9.77,0.0,0.0,0.0,0.008644658018987028,0.00019110452886809384,0.01443376575078114,-0.0003755286588909834,0.0
1777404775.2890525,-0.04,-0.27,9.61,0.0,0.0,0.0,0.008435262565963943,0.00022902721073481946,0.014475985262539773,-0.00037438234993603976,0.0
1777404775.292054,-0.04,-0.27,9.61,0.0,0.0,0.0,0.008312204509900233,0.00025131370952869385,0.014500933941170396,-0.000373628044027537,0.0
1777404775.2969966,-0.04,-0.27,9.65,0.0,0.0,0.0,0.008113610957667996,0.0002872801070476305,0.014541036725509207,-0.000372208117408197,0.0
1777404775.302055,-0.04,-0.27,9.65,0.0,0.0,0.0,0.007914436118631,0.0003233517788418772,0.014581070227299462,-0.00037057251079982784,0.0
1777404775.306074,-0.04,-0.3,9.73,0.0,0.0,0.0,0.0077593484274350285,0.00023327977636431802,0.014612255219241217,-0.00036963495424928374,0.0
1777404775.3120873,-0.04,-0.3,9.73,0.0,0.0,0.0,0.007531942049526867,0.0001012064462605499,0.014657547749866839,-0.0003690263600730906,0.0
1777404775.3160498,0.04,-0.23,9.65,0.0,0.0,0.0,0.007695751247420215,0.0002877461605942464,0.014688042293355371,-0.00036788616108201214,0.0
1777404775.3190916,0.04,-0.3,9.69,0.0,0.0,0.0,0.007818981102521832,0.00021941200096961647,0.014711825634025474,-0.00036721876589359225,0.0
1777404775.3230536,0.04,-0.3,9.69,0.0,0.0,0.0,0.00797628452448743,0.0001321831623311732,0.014743427991944197,-0.00036669505092404796,0.0
1777404775.3280492,0.0,-0.38,9.73,0.0,0.0,0.0,0.00797482871789491,-0.0003672544946463794,0.014783266922581093,-0.00036852970178062047,0.0
1777404775.331864,0.0,-0.38,9.73,0.0,0.0,0.0,0.007973739209277473,-0.0007410277925183721,0.014813686224827103,-0.0003713566751492858,0.0
1777404775.3350496,0.04,-0.15,9.69,0.0,0.0,0.0,0.008097719670272403,-0.0003288761621635947,0.014839481596959048,-0.0003724043136615796,0.0
1777404775.343069,0.04,-0.15,9.69,0.0,0.0,0.0,0.008403595177368054,0.0006879541345088868,0.014906873785838527,-0.0003668873017167275,0.0
1777404775.3470576,-0.04,-0.3,9.61,0.0,0.0,0.0,0.008239982278085962,0.0005972541346932636,0.014939738991491265,-0.0003645051509667381,0.0
1777404775.3520591,-0.04,-0.3,9.61,0.0,0.0,0.0,0.008038916704942504,0.00048579197292570415,0.014979945994759575,-0.0003620754405766387,0.0
1777404775.3559227,0.04,-0.34,9.84,0.0,0.0,0.0,0.0081896088852372,0.0002499601083917881,0.01501158714713796,-0.00036110970143219686,0.0
1777404775.3590584,-0.04,-0.27,9.61,0.0,0.0,0.0,0.008063627421439032,0.0002774944032486129,0.015036872111662889,-0.0003602395674620493,0.0
1777404775.3620608,-0.04,-0.27,9.61,0.0,0.0,0.0,0.007945413090376217,0.0003033311267605773,0.015060727460976413,-0.00035932884451986486,0.0
1777404775.3679366,-0.04,-0.19,9.65,0.0,0.0,0.0,0.007718689962824227,0.0008135480977700823,0.015106081139234786,-0.0003545485775507697,0.0
1777404775.3718038,-0.04,-0.19,9.65,0.0,0.0,0.0,0.0075724574553657,0.0011426292454421736,0.01513536496318413,-0.00035012985960350786,0.0
1777404775.3750794,-0.04,-0.34,9.73,0.0,0.0,0.0,0.007451069868955512,0.0009342814353809437,0.015159771932476194,-0.00034706949663489644,0.0
1777404775.382002,-0.04,-0.34,9.73,0.0,0.0,0.0,0.00719966017685084,0.0005027656574728633,0.015209613177387159,-0.00034358898982604755,0.0
1777404775.3858554,0.0,-0.3,9.65,0.0,0.0,0.0,0.007213569648897314,0.0004184296043926129,0.015237409377344406,-0.0003419766462128537,0.0
1777404775.390054,0.0,-0.27,9.69,0.0,0.0,0.0,0.007228422197262841,0.00045181288596811225,0.01526775827787565,-0.00034007968668824643,0.0
1777404775.3940558,0.0,-0.27,9.69,0.0,0.0,0.0,0.007242295793164547,0.000482995828252034,0.015296740901664548,-0.0003381468070073243,0.0
1777404775.3989456,-0.04,-0.3,9.69,0.0,0.0,0.0,0.007067231133694819,0.00037657717660172354,0.01533129773000149,-0.00033630544755533303,0.0
1777404775.4029412,-0.04,-0.3,9.69,0.0,0.0,0.0,0.006927037537932368,0.0002913560161674068,0.01535897579580173,-0.00033514128885940884,0.0
1777404775.406855,-0.04,-0.19,9.73,0.0,0.0,0.0,0.006792459716661668,0.0006314647825751863,0.015385560663924956,-0.00033266981185851565,0.0
1777404775.413072,-0.04,-0.19,9.73,0.0,0.0,0.0,0.006582964940704938,0.0011609057346336823,0.015426486975845557,-0.0003254524575760631,0.0
1777404775.4170563,0.0,-0.34,9.65,0.0,0.0,0.0,0.006607574914342722,0.0009077367194073933,0.015452812960894229,-0.00032183584125115746,0.0
1777404775.422057,0.0,-0.34,9.65,0.0,0.0,0.0,0.006637845167190386,0.0005963389821774811,0.015486006111542501,-0.0003188537937381039,0.0
1777404775.426056,0.04,-0.3,9.77,0.0,0.0,0.0,0.006818328873601883,0.0005090539628514088,0.015513272573438664,-0.0003168180895738596,0.0
1777404775.429058,0.0,-0.34,9.65,0.0,0.0,0.0,0.006833428639547347,0.00032715206430049704,0.015533787665675465,-0.0003158359245248617,0.0
1777404775.432057,0.0,-0.34,9.65,0.0,0.0,0.0,0.006848209957760563,0.00014908640051603862,0.015554324275527472,-0.0003153888399201953,0.0
1777404775.437949,-0.04,-0.19,9.65,0.0,0.0,0.0,0.006645703248983598,0.0006723534188894684,0.015593481013902214,-0.0003114273077944802,0.0
1777404775.4420686,-0.04,-0.19,9.65,0.0,0.0,0.0,0.006506945058859451,0.0010308975128588368,0.01562028725009111,-0.0003071803867022828,0.0
1777404775.4460578,0.0,-0.34,9.73,0.0,0.0,0.0,0.006531644247836319,0.0007847320388380287,0.015646343413772808,-0.0003040499182207808,0.0
1777404775.4520576,0.0,-0.34,9.73,0.0,0.0,0.0,0.006568048980611289,0.00042190278527246797,0.015685750417317873,-0.00030151858439486314,0.0
1777404775.456063,0.0,-0.3,9.69,0.0,0.0,0.0,0.006591866485892717,0.00034153758720509276,0.015712153691129927,-0.00030015057876984277,0.0
1777404775.460121,0.0,-0.34,9.65,0.0,0.0,0.0,0.00661551329905296,0.0001026792784445701,0.015738998678128932,-0.0002997339181465006,0.0
1777404775.4640594,0.0,-0.34,9.65,0.0,0.0,0.0,0.006638005030689986,-0.0001245114615299759,0.015765142039483277,-0.000300224298632277,0.0
1777404775.469061,0.0,-0.27,9.73,0.0,0.0,0.0,0.006665996732085706,-6.415184236526844e-05,0.015798482321791305,-0.0003005451569556457,0.0
1777404775.4720595,0.0,-0.27,9.73,0.0,0.0,0.0,0.006682443037543085,-2.868801971154384e-05,0.015818520231795724,-0.00030063118057813756,0.0
1777404775.477064,0.0,-0.15,9.65,0.0,0.0,0.0,0.0067093416455195,0.0006178326613325846,0.01585209650121717,-0.00029753929511600345,0.0
1777404775.482062,0.0,-0.15,9.65,0.0,0.0,0.0,0.006735669628809887,0.0012506381099395844,0.01588576277292718,-0.0002912883468450213,0.0
1777404775.4860091,0.0,-0.34,9.65,0.0,0.0,0.0,0.006756044679759367,0.0010054269875008955,0.015912429013541455,-0.0002873199068420846,0.0
1777404775.4920611,0.0,-0.34,9.65,0.0,0.0,0.0,0.006786661187608088,0.000636961246072686,0.01595350200386029,-0.0002834650064175305,0.0
1777404775.4960625,0.0,-0.34,9.73,0.0,0.0,0.0,0.00680649888514199,0.0003982171030053267,0.01598073738565172,-0.00028187158885892283,0.0
1777404775.4999597,0.0,-0.3,9.65,0.0,0.0,0.0,0.006825433620517751,0.0003231098452739718,0.016007337397944816,-0.0002806123683706491,0.0
1777404775.5031135,0.0,-0.3,9.65,0.0,0.0,0.0,0.0068404500958609265,0.0002635449101727264,0.016028910816053767,-0.0002797812001787954,0.0
1777404775.5080705,-0.08,-0.15,9.69,0.0,0.0,0.0,0.006474954359653598,0.0009004698478474501,0.016061006910207065,-0.0002753176065512004,0.0
1777404775.5118809,-0.08,-0.15,9.69,0.0,0.0,0.0,0.006199617637084015,0.0013802807115307308,0.016084629968782665,-0.00027005817701731725,0.0
1777404775.5160706,-0.04,-0.3,9.61,0.0,0.0,0.0,0.006067163614273567,0.0012814147231650463,0.016110049744314823,-0.0002646893957057625,0.0
1777404775.5220726,-0.04,-0.3,9.61,0.0,0.0,0.0,0.005881213029921117,0.0011426179700042092,0.0161453484868035,-0.00025783146056875623,0.0
1777404775.5260687,0.0,-0.3,9.69,0.0,0.0,0.0,0.005916530602346739,0.0010520544945082921,0.01616899173474784,-0.0002536273100392635,0.0
1777404775.5320642,0.0,-0.3,9.69,0.0,0.0,0.0,0.005968458791232328,0.0009188970621397039,0.01620477570110391,-0.0002481180516684761,0.0
1777404775.5360658,0.0,-0.3,9.69,0.0,0.0,0.0,0.006002424332561736,0.0008318005473277225,0.016228795106945193,-0.0002447895040986413,0.0
1777404775.5390644,0.0,-0.27,9.65,0.0,0.0,0.0,0.0060273671901066575,0.0008559991089468355,0.016246868712756782,-0.00024222271332877235,0.0
1777404775.542125,0.0,-0.27,9.65,0.0,0.0,0.0,0.006052316512922756,0.0008802039429131599,0.016265392307392837,-0.0002395287793613784,0.0
1777404775.5480704,0.0,-0.23,9.73,0.0,0.0,0.0,0.006099813438824739,0.0011593449675306711,0.016301658407256836,-0.00023263595865612854,0.0
1777404775.5510654,0.0,-0.23,9.73,0.0,0.0,0.0,0.00612326145805388,0.001297149762021599,0.016319997662216913,-0.0002287509767114447,0.0
1777404775.5550735,-0.04,-0.3,9.69,0.0,0.0,0.0,0.005996897261485395,0.0012029250907914762,0.016344033554670782,-0.000223929587107521,0.0
1777404775.5610745,-0.04,-0.3,9.69,0.0,0.0,0.0,0.005811484431131687,0.0010646702412664658,0.016378908247380607,-0.00021754050563591645,0.0
1777404775.565067,0.04,-0.3,9.73,0.0,0.0,0.0,0.006003610007809664,0.0009745267610939228,0.016402878005698264,-0.00021364965148197842,0.0
1777404775.5700674,0.0,-0.38,9.73,0.0,0.0,0.0,0.006043405367481015,0.0004718596829916663,0.016433097165008646,-0.00021129018656684966,0.0
1777404775.574044,0.0,-0.38,9.73,0.0,0.0,0.0,0.00607442009440989,8.010340054498785e-05,0.01645725260361173,-0.00021097164870748376,0.0
1777404775.5788977,0.0,-0.15,9.65,0.0,0.0,0.0,0.006111518832619716,0.0007055278664992552,0.01648691623800601,-0.00020754721015791945,0.0
1777404775.5820878,0.0,-0.15,9.65,0.0,0.0,0.0,0.0061354137876694515,0.0011083579955580396,0.016506488457015175,-0.000204011503165635,0.0
1777404775.587134,0.0,-0.23,9.65,0.0,0.0,0.0,0.006172455789848458,0.0013372094528181508,0.016537635466576748,-0.00019726377146357045,0.0
1777404775.5910687,0.0,-0.23,9.65,0.0,0.0,0.0,0.006200762635106339,0.0015120937033075653,0.016562034600862148,-0.00019131389408715994,0.0
1777404775.5950687,0.04,-0.34,9.73,0.0,0.0,0.0,0.0063857601961088304,0.0012551208016767582,0.016587577312790067,-0.00018629347551718243,0.0
1777404775.6010964,0.04,-0.34,9.73,0.0,0.0,0.0,0.006658965546917657,0.0008756218971616801,0.01662771554954095,-0.00018101549070634334,0.0
1777404775.6050696,0.0,-0.38,9.69,0.0,0.0,0.0,0.006679699874625186,0.00047472146153270853,0.016654255637815578,-0.00017912930573824314,0.0
1777404775.610006,0.0,-0.19,9.69,0.0,0.0,0.0,0.006704945489391506,0.0009057630437807722,0.01668735431076772,-0.00017465804571000464,0.0
1777404775.6140468,0.0,-0.19,9.69,0.0,0.0,0.0,0.006725196898494544,0.001251533962941428,0.0167145289354577,-0.00016960094979994868,0.0
1777404775.61709,0.04,-0.23,9.69,0.0,0.0,0.0,0.00685943619798993,0.0013874428117820474,0.01673540339845112,-0.00016537871887687157,0.0
1777404775.621999,0.04,-0.23,9.69,0.0,0.0,0.0,0.007071650819823039,0.001602296770860376,0.016770118404893227,-0.00015751298227027007,0.0
1777404775.62508,-0.04,-0.27,9.69,0.0,0.0,0.0,0.006960623300004227,0.0016136711253516847,0.016791564665084656,-0.00015254112711792064,0.0
1777404775.631099,-0.04,-0.27,9.69,0.0,0.0,0.0,0.00674806956301828,0.0016354464613843726,0.016832180465970428,-0.00014269757597864974,0.0
1777404775.635079,-0.04,-0.3,9.65,0.0,0.0,0.0,0.0066103315419893125,0.0015325475194827814,0.016858489065545094,-0.0001365981573998519,0.0
1777404775.64108,-0.04,-0.3,9.65,0.0,0.0,0.0,0.0064068013994437465,0.0013804977357225353,0.016896936252783788,-0.00012831379651229196,0.0
1777404775.6450727,0.0,-0.34,9.73,0.0,0.0,0.0,0.006430607482329541,0.001124836305783639,0.016922612356258065,-0.00012382255467265454,0.0
1777404775.6490142,-0.04,-0.23,9.77,0.0,0.0,0.0,0.0062991297214811896,0.0013024022477617562,0.01694744060250715,-0.00011868908939212233,0.0
1777404775.651118,-0.04,-0.23,9.77,0.0,0.0,0.0,0.006230356641001433,0.0013952830265286694,0.016960548061337077,-0.00011575368522826369,0.0
1777404775.6560814,-0.04,-0.27,9.61,0.0,0.0,0.0,0.006071348976717772,0.0014154639965437447,0.016990682582582392,-0.00010872817408742895,0.0
1777404775.6629453,-0.04,-0.27,9.61,0.0,0.0,0.0,0.005855856700124387,0.001442813893116361,0.01703087620196236,-9.882494123427216e-05,0.0
1777404775.6660948,0.0,-0.27,9.69,0.0,0.0,0.0,0.005882415183685011,0.0014551125589626834,0.01704940292405415,-9.424205050820723e-05,0.0
1777404775.6720965,0.0,-0.27,9.69,0.0,0.0,0.0,0.005932012880319239,0.0014780801917440977,0.01708500515036781,-8.537104052257573e-05,0.0
1777404775.676089,-0.04,-0.34,9.69,0.0,0.0,0.0,0.005807838942530423,0.001219164076395115,0.017108193281445482,-8.050345781438085e-05,0.0
1777404775.6810875,-0.04,-0.34,9.69,0.0,0.0,0.0,0.005655489696523754,0.0009014993904327604,0.01713646193853081,-7.599736223322535e-05,0.0
1777404775.685084,-0.04,-0.23,9.69,0.0,0.0,0.0,0.0055361119811603585,0.0010834185456943754,0.017158587622587138,-7.166736014432698e-05,0.0
1777404775.6880972,0.0,-0.27,9.69,0.0,0.0,0.0,0.005566025339379279,0.0010997135477382378,0.017175358802797032,-6.835377586042293e-05,0.0
1777404775.6910782,0.0,-0.27,9.69,0.0,0.0,0.0,0.00559502728458065,0.001115512066676624,0.0171920372853627,-6.502849296017111e-05,0.0
1777404775.6970117,0.0,-0.27,9.73,0.0,0.0,0.0,0.005651600585550177,0.0011463298052996126,0.01722557118843043,-5.822671849067833e-05,0.0
1777404775.702055,0.0,-0.27,9.73,0.0,0.0,0.0,0.005698724028902137,0.0011719998287090326,0.017254311382127255,-5.231600901976679e-05,0.0
1777404775.705943,0.0,-0.27,9.65,0.0,0.0,0.0,0.005734327457820026,0.0011913944397299564,0.017276607193823814,-4.7683712332851366e-05,0.0
1777404775.7120786,0.0,-0.27,9.65,0.0,0.0,0.0,0.005789385973087225,0.0012213870140255292,0.017312127761391502,-4.018993662681457e-05,0.0
1777404775.716079,0.0,-0.3,9.73,0.0,0.0,0.0,0.005824567067791312,0.0011229390577577772,0.017335428507076714,-3.5697702766293795e-05,0.0
1777404775.7190802,0.0,-0.3,9.69,0.0,0.0,0.0,0.0058504328778951524,0.0010505582474574914,0.017352986902716836,-3.2544753619309005e-05,0.0
1777404775.7230997,0.0,-0.3,9.69,0.0,0.0,0.0,0.005884381897492375,0.0009555580314394212,0.01737663916884009,-2.870388923464895e-05,0.0
1777404775.7280807,0.04,-0.19,9.69,0.0,0.0,0.0,0.006120867581201441,0.0013771426571165812,0.017407127460939677,-2.1844285259238583e-05,0.0
1777404775.731082,0.04,-0.19,9.69,0.0,0.0,0.0,0.006260506876185124,0.0016260785714696162,0.01742591657602466,-1.6964076991631006e-05,0.0
1777404775.7360156,0.04,-0.27,9.69,0.0,0.0,0.0,0.006485464360493626,0.0016403178986726958,0.01745791323482948,-8.87141173006816e-06,0.0
1777404775.7411416,0.04,-0.27,9.69,0.0,0.0,0.0,0.006714520282514605,0.0016548166482096833,0.017492331862109255,-3.8882250036325715e-07,0.0
1777404775.745083,0.0,-0.42,9.73,0.0,0.0,0.0,0.006732617536206732,0.0010863364199189625,0.017518868716163843,3.893011552223367e-06,0.0
1777404775.7519555,0.0,-0.42,9.73,0.0,0.0,0.0,0.006763540610905622,0.00011496491442232395,0.017565350577781254,4.683098216953317e-06,0.0
1777404775.7551472,0.0,-0.15,9.73,0.0,0.0,0.0,0.006777614777669687,0.0005173862976760272,0.017586982755379413,6.334444987952504e-06,0.0
1777404775.758983,-0.04,-0.3,9.61,0.0,0.0,0.0,0.006643831731422323,0.0004274844053794637,0.017612466355255606,7.974137560008515e-06,0.0
1777404775.7620926,-0.04,-0.3,9.61,0.0,0.0,0.0,0.006537539238461092,0.0003560561002079325,0.017632796098709408,9.081362910152916e-06,0.0
1777404775.7679465,0.0,-0.3,9.84,0.0,0.0,0.0,0.006570921648545606,0.00022428399307467518,0.01767126156025839,1.0394297042243127e-05,0.0
1777404775.771083,0.0,-0.3,9.84,0.0,0.0,0.0,0.006588450887633717,0.00015508992454471023,0.01769192712476628,1.0880757500834161e-05,0.0
1777404775.7750838,0.0,-0.3,9.61,0.0,0.0,0.0,0.006610361637045435,6.860049458620028e-05,0.017718372958990414,1.1155205013259689e-05,0.0
1777404775.781083,0.0,-0.3,9.61,0.0,0.0,0.0,0.006642561481127562,-5.850360884199214e-05,0.017758223855479944,1.080422275034049e-05,0.0
1777404775.7850926,-0.04,-0.19,9.69,0.0,0.0,0.0,0.006506479143393379,0.00029047129440597604,0.01778431148760066,1.1968863119284969e-05,0.0
1777404775.7910926,-0.04,-0.19,9.69,0.0,0.0,0.0,0.006306909948579197,0.0008022543928679847,0.017822153211940608,1.6782423140426902e-05,0.0
1777404775.7951138,-0.04,-0.34,9.73,0.0,0.0,0.0,0.006175835667448256,0.0005472747786358806,0.017846987283187513,1.8983106833471747e-05,0.0
1777404775.798088,0.0,-0.27,9.65,0.0,0.0,0.0,0.00619741653022816,0.0005664851292540908,0.0178654200842469,2.066798756396834e-05,0.0
1777404775.801957,0.0,-0.27,9.65,0.0,0.0,0.0,0.006224926655047632,0.0005909734524839154,0.01788950319430079,2.2954356461753646e-05,0.0
1777404775.806086,0.0,-0.27,9.73,0.0,0.0,0.0,0.00625370085204729,0.000616586998094132,0.017915325796824737,2.5500349842298373e-05,0.0
1777404775.8110871,0.0,-0.27,9.73,0.0,0.0,0.0,0.00628785387503589,0.0006469885419514855,0.017946771782352433,2.8735983610373925e-05,0.0
1777404775.8150942,-0.04,-0.3,9.73,0.0,0.0,0.0,0.006157593289088255,0.0005530517946862135,0.017971445880941784,3.0952118042520756e-05,0.0
1777404775.822095,-0.04,-0.3,9.73,0.0,0.0,0.0,0.005934570456133131,0.0003922200331730832,0.018012991937761565,3.369792684275585e-05,0.0
1777404775.826022,-0.04,-0.19,9.69,0.0,0.0,0.0,0.005811969192639218,0.0007271365491329708,0.018035815496705306,3.6553386556875085e-05,0.0
1777404775.828134,0.0,-0.27,9.65,0.0,0.0,0.0,0.005830142682444874,0.0007380775729056319,0.018048129633692938,3.811231724439106e-05,0.0
1777404775.831092,0.0,-0.27,9.65,0.0,0.0,0.0,0.0058550835457746395,0.0007530927726014395,0.01806544792213099,4.0339830781057326e-05,0.0
1777404775.8380897,0.04,-0.3,9.77,0.0,0.0,0.0,0.006187224971989953,0.0005821703055714474,0.01810874503177132,4.441375595167623e-05,0.0
1777404775.8420894,0.04,-0.3,9.77,0.0,0.0,0.0,0.00637326853012645,0.0004864308963262003,0.018134236258172984,4.635933851239866e-05,0.0
1777404775.8459382,0.04,-0.3,9.73,0.0,0.0,0.0,0.006548711730878567,0.00039614651043104633,0.018159440881746185,4.788402368492988e-05,0.0
1777404775.8520896,0.04,-0.3,9.73,0.0,0.0,0.0,0.006823510580048689,0.0002547329632792623,0.018201415282379958,4.9450997653809644e-05,0.0
1777404775.856058,0.0,-0.19,9.61,0.0,0.0,0.0,0.006841680551213836,0.0005931089566148709,0.018228564704809616,5.18045956462055e-05,0.0
1777404775.860947,0.0,-0.19,9.61,0.0,0.0,0.0,0.006863618880950573,0.0010016623907024213,0.018262121015647545,5.670173447632937e-05,0.0
1777404775.86412,-0.04,-0.3,9.65,0.0,0.0,0.0,0.006753186708316737,0.0009194608107745133,0.018283549639300237,5.961928740778069e-05,0.0
1777404775.8680904,0.04,-0.27,9.73,0.0,0.0,0.0,0.0069290492449245785,0.0009353917970889759,0.018311060629699533,6.333315259183095e-05,0.0
1777404775.871092,0.04,-0.27,9.73,0.0,0.0,0.0,0.0070593457169821575,0.0009471950574832054,0.01833225059651567,6.61763384395219e-05,0.0
1777404775.8779984,0.04,-0.3,9.61,0.0,0.0,0.0,0.007353135387194235,0.0007707644271806413,0.018383033342058402,7.149944643601945e-05,0.0
1777404775.881976,0.04,-0.3,9.61,0.0,0.0,0.0,0.007518953981000468,0.0006711847550975494,0.018412940260885705,7.416910873739112e-05,0.0
1777404775.885141,0.0,-0.34,9.77,0.0,0.0,0.0,0.0075241920204013255,0.00046946369001557055,0.018436754378572652,7.565496443239003e-05,0.0
1777404775.8920927,0.0,-0.34,9.77,0.0,0.0,0.0,0.0075354670590298154,3.5252981213526656e-05,0.018489139505761143,7.590003642197973e-05,0.0
1777404775.895956,0.0,-0.15,9.69,0.0,0.0,0.0,0.0075416076280474895,0.000518127695374341,0.018518275259870737,7.790173710362938e-05,0.0
1777404775.900113,0.0,-0.3,9.61,0.0,0.0,0.0,0.007548082919467159,0.0004162351562654904,0.018549653141346146,7.96320542634359e-05,0.0
1777404775.9040637,0.0,-0.3,9.61,0.0,0.0,0.0,0.007554113526673367,0.00032133998618215815,0.018579496390938206,8.090153868112197e-05,0.0
1777404775.9079502,0.04,-0.38,9.81,0.0,0.0,0.0,0.007712276859252176,-7.484611078981156e-05,0.018609469856162155,8.061065217123028e-05,0.0
1777404775.9110937,0.04,-0.38,9.81,0.0,0.0,0.0,0.007837648055451832,-0.00038889061203537396,0.018634107886598465,7.938815549009167e-05,0.0
1777404775.9160943,0.0,-0.38,9.65,0.0,0.0,0.0,0.00783707006200879,-0.0008784646720840607,0.01867329787079622,7.499531271277008e-05,0.0
1777404775.921095,0.0,-0.38,9.65,0.0,0.0,0.0,0.00783650362843461,-0.001358247250931774,0.01871248502249118,6.820327335628971e-05,0.0
1777404775.9250948,0.0,-0.11,9.69,0.0,0.0,0.0,0.007836059602738388,-0.0006759611004890923,0.018743828857357498,6.549946376525732e-05,0.0
1777404775.932173,0.0,-0.11,9.69,0.0,0.0,0.0,0.00783528958484651,0.0005072419161202829,0.018799288375121334,6.90898086724884e-05,0.0
1777404775.936122,-0.04,-0.3,9.65,0.0,0.0,0.0,0.007680070646591326,0.0004188610371953603,0.018829616412888623,7.074386030037869e-05,0.0
1777404775.9390967,0.0,-0.3,9.73,0.0,0.0,0.0,0.007682092048650077,0.0003536147858025369,0.018852468705543378,7.179577539343304e-05,0.0
1777404775.9430969,0.0,-0.3,9.73,0.0,0.0,0.0,0.0076847558926884585,0.00026763197152415144,0.018883209165549978,7.286635330534219e-05,0.0
1777404775.947104,-0.04,-0.34,9.69,0.0,0.0,0.0,0.007530292610579899,2.614480703370462e-05,0.018913383809044112,7.297111818929325e-05,0.0
1777404775.9509263,-0.04,-0.34,9.69,0.0,0.0,0.0,0.007385898713275851,-0.00019959992889112587,0.01894161512660508,7.220818205972741e-05,0.0
1777404775.9560978,0.0,-0.27,9.69,0.0,0.0,0.0,0.007397167947772854,-0.00014415235386896854,0.01897986985729583,7.146269277049807e-05,0.0
1777404775.9601042,0.0,-0.27,9.69,0.0,0.0,0.0,0.00740572360920653,-0.00010205626656737402,0.019009540043226348,7.105381599299264e-05,0.0
1777404775.964098,0.0,-0.19,9.73,0.0,0.0,0.0,0.007414081712454686,0.00025217775299107603,0.019039150029237215,7.206095079780258e-05,0.0
1777404775.971964,0.0,-0.19,9.73,0.0,0.0,0.0,0.0074302142138883845,0.0009359071421503463,0.019097595394033044,7.942270817967671e-05,0.0
1777404775.9751422,0.0,-0.27,9.65,0.0,0.0,0.0,0.007436602463436165,0.0009574713396504048,0.0191212315795456,8.246589494651086e-05,0.0
1777404775.978099,0.04,-0.34,9.73,0.0,0.0,0.0,0.00755833586732955,0.0007742904685714982,0.019143580575094476,8.47553690502534e-05,0.0
1777404775.982102,0.04,-0.34,9.73,0.0,0.0,0.0,0.007719834534932093,0.000531271989967008,0.019174481602298746,8.68819496318126e-05,0.0
1777404775.9870546,0.04,-0.34,9.73,0.0,0.0,0.0,0.007915660110348464,0.0002365993829665879,0.0192136852478791,8.805374809524418e-05,0.0
1777404775.9908588,0.04,-0.34,9.73,0.0,0.0,0.0,0.008063067852307582,1.4784517759216305e-05,0.0192443588258199,8.81099914589503e-05,0.0
1777404775.994104,0.0,-0.19,9.61,0.0,0.0,0.0,0.008059088177665675,0.0003063852977512703,0.01927051149600933,8.910424707029668e-05,0.0
1777404776.001058,0.0,-0.19,9.61,0.0,0.0,0.0,0.008050730410642231,0.0009187799285493062,0.019326497830003626,9.54936201238298e-05,0.0
1777404776.004909,0.0,-0.27,9.73,0.0,0.0,0.0,0.008046194797644995,0.0009492022592833728,0.019357483218371174,9.914893811984178e-05,0.0
1777404776.011102,0.0,-0.27,9.73,0.0,0.0,0.0,0.008039046686163372,0.000997147754578137,0.01940726841221337,0.00010532419697689342,0.0
1777404776.0150535,0.04,-0.3,9.73,0.0,0.0,0.0,0.008189477616625892,0.0009109531672589954,0.01943962953864053,0.00010892387353685441,0.0
1777404776.0181017,0.0,-0.34,9.65,0.0,0.0,0.0,0.00818370883877988,0.0007263046923005324,0.019464574968801007,0.00011113778208784698,0.0
1777404776.021103,0.0,-0.34,9.65,0.0,0.0,0.0,0.008178142547969159,0.0005481374726899271,0.019489119317134804,0.00011278285943708556,0.0
1777404776.0261028,0.04,-0.27,9.73,0.0,0.0,0.0,0.00836504997983863,0.000600247345070155,0.019530943529954665,0.0001157840217451744,0.0
1777404776.03096,0.04,-0.27,9.73,0.0,0.0,0.0,0.008542996086714182,0.0006498587961884774,0.01957243943947258,0.00011894058198848243,0.0
1777404776.0341337,0.04,-0.27,9.65,0.0,0.0,0.0,0.008656934525630789,0.000681624881954897,0.019599912997772282,0.00012110377969749485,0.0
1777404776.0411506,0.04,-0.27,9.65,0.0,0.0,0.0,0.008903817235557885,0.0007504558876485086,0.019662390168015475,0.00012636965151541346,0.0
1777404776.0451124,-0.04,-0.27,9.69,0.0,0.0,0.0,0.008729816290176535,0.0007885412236948042,0.01969697596754118,0.0001294936953410724,0.0
1777404776.0481057,0.0,-0.3,9.73,0.0,0.0,0.0,0.008718318075179532,0.0007287367987821075,0.019723072903632097,0.0001316750561839463,0.0
1777404776.0510263,0.0,-0.3,9.73,0.0,0.0,0.0,0.008707323565339705,0.0006715522411495369,0.019748503753106866,0.00013363641019025624,0.0
1777404776.0571043,0.0,-0.38,9.69,0.0,0.0,0.0,0.00868490092219197,7.841218770773416e-05,0.019801290622921127,0.00013411299984642644,0.0
1777404776.0611064,0.0,-0.38,9.69,0.0,0.0,0.0,0.008670431900965737,-0.0003043328779311714,0.019835990508739992,0.00013289503097985104,0.0
1777404776.0651052,0.0,-0.19,9.73,0.0,0.0,0.0,0.00865626408638655,6.545823687450727e-05,0.019870604800230757,0.0001331567825240546,0.0
1777404776.0711677,0.0,-0.19,9.73,0.0,0.0,0.0,0.008635213883349513,0.0006148851089191783,0.019922955850280016,0.00013688452818807822,0.0
1777404776.083109,0.0,-0.19,9.73,0.0,0.0,0.0,0.008594580981401746,0.0016754358399491528,0.020025585413719744,0.0001568912334826523,0.0
1777404776.0871058,0.0,-0.27,9.69,0.0,0.0,0.0,0.008581252708088632,0.0017099613004327475,0.020059883385540194,0.0001637256906990235,0.0
1777404776.089179,-0.04,-0.38,9.69,0.0,0.0,0.0,0.008493204312183956,0.001504012082950415,0.02007749224381531,0.00016684394084811541,0.0
1777404776.093122,-0.04,-0.38,9.69,0.0,0.0,0.0,0.00832910340555538,0.0011201725710428302,0.02011033361919513,0.00017126074372647291,0.0
1777404776.097108,0.0,-0.23,9.65,0.0,0.0,0.0,0.008322780727081971,0.0013258403104273694,0.020143507239465706,0.00017654538649669767,0.0
1777404776.101107,0.0,-0.23,9.65,0.0,0.0,0.0,0.008316564117420898,0.0015280577821849325,0.020176765136351936,0.00018265608166342565,0.0
1777404776.105109,0.0,-0.27,9.73,0.0,0.0,0.0,0.008310467118102032,0.001569502404269112,0.020210024409176332,0.00018893737824041704,0.0
1777404776.111128,0.0,-0.27,9.73,0.0,0.0,0.0,0.008301480680123477,0.0016305881132262462,0.02025999197977932,0.00019875207634205912,0.0
1777404776.1151085,0.04,-0.27,9.73,0.0,0.0,0.0,0.008451688474619187,0.0016701757466263318,0.02029363306518557,0.00020540004084103835,0.0
1777404776.119136,0.0,-0.27,9.65,0.0,0.0,0.0,0.008442755806347232,0.001709431740229632,0.020327637151164226,0.00021228495676217787,0.0
1777404776.123109,0.0,-0.27,9.65,0.0,0.0,0.0,0.008434120460085338,0.0017473811062307736,0.02036114597249593,0.00021922731448213083,0.0
1777404776.127109,0.0,-0.3,9.77,0.0,0.0,0.0,0.008425600434872239,0.0016672251900832743,0.02039484794033037,0.00022589612938301237,0.0
1777404776.1301107,0.0,-0.3,9.77,0.0,0.0,0.0,0.00841933460814015,0.0016082766459686486,0.02042012017208002,0.00023072367716513433,0.0
1777404776.1361108,0.0,-0.3,9.73,0.0,0.0,0.0,0.008407060415953576,0.0014928017389023343,0.020470562887350035,0.00023968055023900216,0.0
1777404776.1411111,0.0,-0.3,9.73,0.0,0.0,0.0,0.008397035855035097,0.0013984912357876645,0.02051255102959906,0.0002466734998888546,0.0
1777404776.145049,0.0,-0.19,9.65,0.0,0.0,0.0,0.008389299042979755,0.0017502157973425996,0.020545587750898445,0.00025356577911437276,0.0
1777404776.1511104,0.0,-0.19,9.65,0.0,0.0,0.0,0.00837762869646251,0.0022807634547769334,0.020596367201875333,0.0002673902060778914,0.0
1777404776.155111,0.04,-0.27,9.69,0.0,0.0,0.0,0.008526905966732267,0.0023102864112038222,0.02063048048553855,0.00027663288519223317,0.0
1777404776.1579623,0.0,-0.38,9.73,0.0,0.0,0.0,0.008519398241642776,0.0020235419077706276,0.020654771400925656,0.0002824025045796283,0.0
1777404776.161112,0.0,-0.38,9.73,0.0,0.0,0.0,0.008511270399429036,0.0017131131091955949,0.020681579756554352,0.0002877983789095727,0.0
1777404776.1680324,0.04,-0.19,9.77,0.0,0.0,0.0,0.008765047040414588,0.0023332751567606844,0.02074223684182883,0.0003039454308877163,0.0
1777404776.1711142,0.04,-0.19,9.77,0.0,0.0,0.0,0.008875799831848188,0.002603925275078393,0.02076959026891148,0.0003119702040337885,0.0
1777404776.1751137,0.0,-0.3,9.61,0.0,0.0,0.0,0.008859877769492003,0.002516999514202257,0.020805025099000864,0.00032203687227022127,0.0
1777404776.1809554,0.0,-0.3,9.61,0.0,0.0,0.0,0.008837086715875658,0.002392572814164859,0.020856648991477992,0.000336013641501223,0.0
1777404776.184137,0.0,-0.27,9.81,0.0,0.0,0.0,0.008824921844505977,0.002419701123779705,0.0208847272094648,0.00034371239473819393,0.0
1777404776.1921136,0.0,-0.27,9.81,0.0,0.0,0.0,0.00879503438269907,0.0024863517518759807,0.020954881082504897,0.00036354485900658335,0.0
1777404776.1960716,-0.04,-0.3,9.61,0.0,0.0,0.0,0.008625347627257815,0.002402397799124435,0.020989020094832115,0.00037305351785993894,0.0
1777404776.1989176,0.0,-0.23,9.69,0.0,0.0,0.0,0.008617337421705592,0.0025384735755850265,0.021013545059356122,0.00038027802020210546,0.0
1777404776.2021153,0.0,-0.23,9.69,0.0,0.0,0.0,0.008608517431814573,0.0026883058071014597,0.021041072257145195,0.00038887433498635684,0.0
1777404776.206123,-0.04,-0.3,9.77,0.0,0.0,0.0,0.00844057754365134,0.002597406754912587,0.02107490054153011,0.0003992842641546004,0.0
1777404776.210124,-0.04,-0.3,9.77,0.0,0.0,0.0,0.008276280382556643,0.0025084793631882656,0.021108013129721066,0.0004093204446969889,0.0
1777404776.2141414,-0.04,-0.27,9.61,0.0,0.0,0.0,0.008114607119869274,0.002539082361184632,0.021140612371447414,0.0004195208349848557,0.0
1777404776.2201254,-0.04,-0.27,9.61,0.0,0.0,0.0,0.007878602343858208,0.002583755509776714,0.021187758462963075,0.00043498220343594695,0.0
1777404776.2241166,0.0,-0.23,9.69,0.0,0.0,0.0,0.007880797159913699,0.0027694069371991745,0.021219211725401123,0.0004460352582762051,0.0
1777404776.2291238,-0.04,-0.34,9.69,0.0,0.0,0.0,0.007687210836965486,0.002457883426536807,0.021257703642533966,0.0004583425368435493,0.0
1777404776.233073,-0.04,-0.34,9.69,0.0,0.0,0.0,0.007537585440515248,0.0022171028379262352,0.021287470813734884,0.00046709824253569996,0.0
1777404776.237187,-0.04,-0.19,9.69,0.0,0.0,0.0,0.007384835471218346,0.0025760392652888486,0.021317851381298866,0.0004776958428819217,0.0
1777404776.2411256,-0.04,-0.19,9.69,0.0,0.0,0.0,0.007241516960471946,0.0029128133704427036,0.021346373362582768,0.0004891684678704093,0.0
1777404776.2441185,0.0,-0.3,9.65,0.0,0.0,0.0,0.007252112480147951,0.00284096755603736,0.021368077981027998,0.0004976711099609533,0.0
1777404776.2501695,0.0,-0.3,9.65,0.0,0.0,0.0,0.007273106346442021,0.0026986129129866576,0.021412088009646023,0.0005140005881608171,0.0
1777404776.2541244,0.08,-0.3,9.77,0.0,0.0,0.0,0.007596616378703613,0.0026074328009871874,0.021442131771969863,0.0005243126912660702,0.0
1777404776.2601223,0.08,-0.3,9.77,0.0,0.0,0.0,0.00807743209150641,0.0024719166618493013,0.0214905793711725,0.0005391389908051934,0.0
1777404776.264123,0.0,-0.3,9.65,0.0,0.0,0.0,0.008078075314991036,0.0023833336989189415,0.02152289703431412,0.0005486739075560679,0.0
1777404776.2689717,0.0,-0.19,9.65,0.0,0.0,0.0,0.00807883929659334,0.0028008121310639303,0.021562069053026836,0.000562254257552026,0.0
1777404776.273007,0.0,-0.19,9.65,0.0,0.0,0.0,0.00807946238656957,0.003141300207711069,0.021594671577997056,0.0005749301403720385,0.0
1777404776.2770283,0.0,-0.3,9.73,0.0,0.0,0.0,0.00808007092219477,0.003040327460651207,0.02162716482508755,0.0005871565319923893,0.0
1777404776.2810223,0.0,-0.3,9.73,0.0,0.0,0.0,0.008080663221063418,0.0029420488367363517,0.021659438897324388,0.0005989070398509059,0.0
1777404776.2841823,0.04,-0.3,9.73,0.0,0.0,0.0,0.008204994463089432,0.002865846999120536,0.02168536667857577,0.0006079631159308332,0.0
1777404776.290124,0.04,-0.3,9.73,0.0,0.0,0.0,0.008434094335194433,0.002725433125926084,0.021735478941522706,0.0006241566295462516,0.0
1777404776.294124,0.04,-0.34,9.65,0.0,0.0,0.0,0.008585241415296334,0.002475998048256363,0.021769819465057582,0.0006340604942293068,0.0
1777404776.3001244,0.04,-0.34,9.65,0.0,0.0,0.0,0.00880744969554695,0.0021092920582643677,0.021822668732525443,0.000646717340877141,0.0
1777404776.3079252,0.04,-0.3,9.73,0.0,0.0,0.0,0.009090548236038427,0.0019478921052555503,0.021893582440195403,0.000661912491679719,0.0
1777404776.3101244,0.0,-0.19,9.73,0.0,0.0,0.0,0.009082554382014505,0.002140371793671957,0.02191355654832388,0.0006666195394818884,0.0
1777404776.31313,0.0,-0.19,9.73,0.0,0.0,0.0,0.009071848060098952,0.0023981635297011935,0.021940822029472982,0.0006738272310215129,0.0
1777404776.3171322,-0.04,-0.34,9.65,0.0,0.0,0.0,0.008900984503453368,0.0021462476336419098,0.021976446730700996,0.0006824172280808455,0.0
1777404776.321152,-0.04,-0.34,9.65,0.0,0.0,0.0,0.008732810060506822,0.001898296482905725,0.022011550332542956,0.0006900478811526758,0.0
1777404776.325126,0.0,-0.3,9.81,0.0,0.0,0.0,0.008725655223499336,0.0018138507916794391,0.022046225745022664,0.0006972560532345547,0.0
1777404776.3301487,0.0,-0.3,9.81,0.0,0.0,0.0,0.008716792952548293,0.0017092529377363817,0.02209000814065525,0.0007058412277091022,0.0
1777404776.334134,-0.04,-0.34,9.61,0.0,0.0,0.0,0.008553673783977781,0.001471689867082582,0.022124097994650805,0.0007117065078171135,0.0
1777404776.3389912,0.0,-0.11,9.69,0.0,0.0,0.0,0.0085492511850576,0.0022827412455926673,0.022165622248768294,0.0007227939265295421,0.0
1777404776.3421524,0.0,-0.11,9.69,0.0,0.0,0.0,0.008546430330242117,0.0028000520458632307,0.022192639155446656,0.0007316454284893668,0.0
1777404776.3471348,-0.04,-0.3,9.65,0.0,0.0,0.0,0.008346760316299709,0.0026713614793642043,0.022234226650556698,0.0007449554108358426,0.0
1777404776.3501346,-0.04,-0.3,9.65,0.0,0.0,0.0,0.008228949848641804,0.002595430719792143,0.02225891171081833,0.0007527411386506182,0.0
1777404776.3551486,0.0,-0.3,9.69,0.0,0.0,0.0,0.008232522070656856,0.0024710556286838582,0.02230018910490944,0.0007651308700270806,0.0
1777404776.3601313,0.0,-0.3,9.69,0.0,0.0,0.0,0.008236001041200591,0.0023499273011284324,0.022341226708707366,0.000776839876018607,0.0
1777404776.3641288,0.0,-0.3,9.65,0.0,0.0,0.0,0.008238736352034825,0.0022546911896035083,0.022374161587155512,0.0007858531490613054,0.0
1777404776.370994,0.0,-0.3,9.65,0.0,0.0,0.0,0.00824333991915848,0.002094407456393454,0.022430754283577176,0.0008002318070476721,0.0
1777404776.3741846,-0.04,-0.27,9.65,0.0,0.0,0.0,0.008120368279124615,0.0021152092389608653,0.022456662460073502,0.0008069804189832337,0.0
1777404776.378131,0.0,-0.19,9.73,0.0,0.0,0.0,0.008126003622678185,0.0024498143298344204,0.022488730143284487,0.0008166481318594152,0.0
1777404776.3811305,0.0,-0.19,9.73,0.0,0.0,0.0,0.008130201320364417,0.002699057521914809,0.022513117041041898,0.0008247440740427215,0.0
1777404776.3871207,0.0,-0.3,9.65,0.0,0.0,0.0,0.008138416709544868,0.0025411050676150287,0.022561868328461052,0.0008399659713643814,0.0
1777404776.3901496,0.0,-0.3,9.65,0.0,0.0,0.0,0.008142487592651952,0.0024628365931936985,0.02258653086183418,0.0008474255823224647,0.0
1777404776.393132,0.04,-0.3,9.69,0.0,0.0,0.0,0.008263325039646593,0.002387310842280152,0.022611175220688697,0.0008545454456719221,0.0
1777404776.4001317,0.04,-0.3,9.69,0.0,0.0,0.0,0.008541261986979663,0.0022135948529405252,0.02267096175754338,0.0008700400143268123,0.0
1777404776.404132,0.04,-0.34,9.69,0.0,0.0,0.0,0.00869691993106179,0.0019594982878977005,0.022705751062897343,0.0008778783737481483,0.0
1777404776.410136,0.04,-0.34,9.69,0.0,0.0,0.0,0.008925882580108385,0.0015857388695210176,0.022759342910559047,0.0008873993006888631,0.0
1777404776.414132,0.0,-0.15,9.65,0.0,0.0,0.0,0.008918576552540702,0.002086031906127497,0.02279498273580708,0.000895735363305832,0.0
1777404776.4171424,-0.04,-0.23,9.69,0.0,0.0,0.0,0.008795180319965562,0.0022193580409751836,0.022821458629476182,0.0009024162368489402,0.0
1777404776.421133,-0.04,-0.23,9.69,0.0,0.0,0.0,0.008634868422450448,0.002392570506378238,0.022855917368674622,0.0009119641487637081,0.0
1777404776.4261537,0.04,-0.34,9.73,0.0,0.0,0.0,0.008830831007991438,0.002064907280345538,0.02290025360166257,0.0009223312603296595,0.0
1777404776.430133,0.04,-0.34,9.73,0.0,0.0,0.0,0.00898304846857456,0.0018103889800512288,0.022936001144518065,0.0009295356028060358,0.0
1777404776.4341362,0.0,-0.38,9.69,0.0,0.0,0.0,0.00897618689705459,0.0014025621244482542,0.02297193325101334,0.0009351501262333996,0.0
1777404776.4401336,0.0,-0.38,9.69,0.0,0.0,0.0,0.008966112401822119,0.0008037707687818478,0.023025706787091753,0.0009399706766009237,0.0
1777404776.444135,0.04,-0.23,9.69,0.0,0.0,0.0,0.009116379353253915,0.0010004598674941273,0.02306218487611097,0.000943973895718125,0.0
1777404776.4490335,0.04,-0.19,9.69,0.0,0.0,0.0,0.009296659225054864,0.0014284569001600535,0.023107725008737975,0.0009509712605897911,0.0
1777404776.4511356,0.04,-0.19,9.69,0.0,0.0,0.0,0.00937247627348646,0.001608451879244798,0.023127427234256995,0.0009543524461736928,0.0
1777404776.457136,0.0,-0.27,9.69,0.0,0.0,0.0,0.009349347159037593,0.001641527114837522,0.023183525938583506,0.0009642020691144992,0.0
1777404776.461157,0.0,-0.27,9.69,0.0,0.0,0.0,0.009334156880839608,0.001663249607984768,0.023221060149254034,0.0009708902748068551,0.0
1777404776.4651372,0.0,-0.34,9.69,0.0,0.0,0.0,0.009319422220923064,0.0014112815956289987,0.02325815293855974,0.0009765074010231309,0.0
1777404776.470023,0.0,-0.34,9.69,0.0,0.0,0.0,0.009301697062303823,0.0011081749741475957,0.023303597993615532,0.0009819215821531186,0.0
1777404776.473194,-0.04,-0.34,9.69,0.0,0.0,0.0,0.009166121009923967,0.0009153830697757136,0.023332663461791418,0.0009848242317531516,0.0
1777404776.480168,-0.04,-0.34,9.69,0.0,0.0,0.0,0.008873898959508086,0.0004998373697040919,0.02339455198784092,0.000988310207671584,0.0
1777404776.4841392,0.0,-0.15,9.73,0.0,0.0,0.0,0.008866503532322838,0.0010073779114788493,0.023429761758719324,0.0009923106059482926,0.0
1777404776.4880786,-0.04,-0.27,9.61,0.0,0.0,0.0,0.008704889790764479,0.0010375236450081433,0.023464053716100764,0.0009963978164095441,0.0
1777404776.4901726,-0.04,-0.27,9.61,0.0,0.0,0.0,0.008620700211253196,0.0010532274868066082,0.02348210572424215,0.0009986033067642306,0.0
1777404776.4951649,-0.04,-0.27,9.73,0.0,0.0,0.0,0.008424003331681407,0.0010899172612059815,0.023524160426467374,0.0010040444425360754,0.0
1777404776.500147,-0.04,-0.27,9.73,0.0,0.0,0.0,0.008231627038708321,0.0011258011186638939,0.0235651723107342,0.0010096534460743787,0.0
1777404776.5041463,-0.04,-0.38,9.69,0.0,0.0,0.0,0.008080295194923858,0.0007229116308410802,0.02359748729591402,0.0010125445383022498,0.0
1777404776.5101478,-0.04,-0.38,9.69,0.0,0.0,0.0,0.00785774012944707,0.0001304051622750647,0.02364464530700202,0.0010133271612939995,0.0
1777404776.5141432,0.0,-0.19,9.69,0.0,0.0,0.0,0.007869160066524753,0.0004877861126976817,0.02367608589509359,0.0010152760709764134,0.0
1777404776.5211413,0.0,-0.19,9.69,0.0,0.0,0.0,0.00788876228834371,0.001101227379177486,0.02373129194374611,0.001022982528599327,0.0
1777404776.5249908,0.0,-0.27,9.69,0.0,0.0,0.0,0.007899329456646351,0.0011301200773165586,0.023761700462872768,0.0010273329330450593,0.0
1777404776.5271416,0.0,-0.27,9.73,0.0,0.0,0.0,0.007905115403429018,0.001145939983752476,0.023778702579565866,0.0010297975909700527,0.0
1777404776.53016,0.0,-0.27,9.73,0.0,0.0,0.0,0.007913072956310429,0.001167697484602619,0.02380258723447569,0.0010333221447828113,0.0
1777404776.5359433,0.0,-0.3,9.69,0.0,0.0,0.0,0.007928014965239299,0.0010385222573460438,0.023848437477808505,0.0010393282507771414,0.0
1777404776.5401485,0.0,-0.3,9.69,0.0,0.0,0.0,0.007938662457114536,0.0009464735784004017,0.02388182135470884,0.00104330838692746,0.0
1777404776.5441432,0.0,-0.3,9.69,0.0,0.0,0.0,0.007948574621296542,0.0008607818841369051,0.02391357355192197,0.0010467469551544446,0.0
1777404776.5501432,0.0,-0.3,9.69,0.0,0.0,0.0,0.007963164924688263,0.0007346471879698833,0.0239613528756178,0.0010511548691092866,0.0
1777404776.554153,-0.04,-0.27,9.73,0.0,0.0,0.0,0.00781553919410365,0.0007699253129869655,0.02399269102806608,0.0010542420568557672,0.0
1777404776.5589485,0.0,-0.19,9.69,0.0,0.0,0.0,0.007830498460311173,0.0011872446454151177,0.024030242585137456,0.0010599355494585636,0.0
1777404776.5621483,0.0,-0.19,9.69,0.0,0.0,0.0,0.007840280350812105,0.0014601304913586328,0.02405533003768936,0.0010646076980020465,0.0
1777404776.5671496,0.08,-0.3,9.73,0.0,0.0,0.0,0.00824736607959071,0.0013389793543788614,0.024096577643549968,0.0010713043441957428,0.0
1777404776.5701456,0.08,-0.3,9.73,0.0,0.0,0.0,0.008486348321211309,0.0012678568161921782,0.024122002470411432,0.0010751028024744635,0.0
1777404776.5750802,0.0,-0.34,9.73,0.0,0.0,0.0,0.00848522620348344,0.0009596220121225028,0.024163873237702856,0.0010798381046330336,0.0
1777404776.5801475,0.0,-0.34,9.73,0.0,0.0,0.0,0.008484096933522365,0.0006494225592944146,0.02420686511340502,0.0010831289550518979,0.0
1777404776.5841467,0.04,-0.19,9.73,0.0,0.0,0.0,0.008639993463433212,0.0009973917176442637,0.024241418462507904,0.0010871177571682357,0.0
1777404776.5901718,0.04,-0.19,9.73,0.0,0.0,0.0,0.00887016324900788,0.0015111426434011406,0.024294861869439226,0.0010962225063093065,0.0
1777404776.5941489,0.0,-0.27,9.61,0.0,0.0,0.0,0.008863155403275785,0.0015316778486202708,0.0243301111730858,0.0011023140815010033,0.0
1777404776.5971754,0.0,-0.3,9.77,0.0,0.0,0.0,0.008857929191307153,0.0014580136311907652,0.024356919566839438,0.0011067267385316657,0.0
1777404776.6011496,0.0,-0.3,9.77,0.0,0.0,0.0,0.008851203697943436,0.0013632168245478016,0.024392096014336093,0.0011121444338747755,0.0
1777404776.606156,-0.04,-0.3,9.61,0.0,0.0,0.0,0.008646643788320207,0.0012461836863966417,0.024435385883861748,0.0011183835169814467,0.0
1777404776.6099842,-0.04,-0.3,9.61,0.0,0.0,0.0,0.008493363840192563,0.001158488920701517,0.024467898894320248,0.001122818268995317,0.0
1777404776.6131558,-0.04,-0.23,9.69,0.0,0.0,0.0,0.008368905601095454,0.001304861086382414,0.024494442404569237,0.0011269568738823603,0.0
1777404776.6211574,-0.04,-0.23,9.69,0.0,0.0,0.0,0.008061200263721077,0.001666745497971398,0.024558944629980352,0.0011402934478782886,0.0
1777404776.625156,-0.04,-0.34,9.77,0.0,0.0,0.0,0.00791051000750572,0.0014129282316542955,0.024590574946556327,0.0011459430668312959,0.0
1777404776.6301565,-0.04,-0.34,9.77,0.0,0.0,0.0,0.007725824187627142,0.0011018500564196519,0.024629208635604926,0.0011514529686131756,0.0
1777404776.6341026,0.0,-0.27,9.65,0.0,0.0,0.0,0.007737685507166984,0.0011319817697579507,0.02465974205255065,0.0011559198432773068,0.0
1777404776.6371498,0.0,-0.27,9.65,0.0,0.0,0.0,0.0077466618550938735,0.0011547846916124163,0.024683347896373595,0.0011594387353613088,0.0
1777404776.6401546,0.0,-0.27,9.65,0.0,0.0,0.0,0.007755336163415925,0.0011768203319886931,0.024706651047901842,0.0011629748325645763,0.0
1777404776.6461053,-0.04,-0.38,9.69,0.0,0.0,0.0,0.007538904183114443,0.0005781026505163835,0.02475151272447711,0.0011664149418304374,0.0
1777404776.649953,-0.04,-0.38,9.69,0.0,0.0,0.0,0.007401762321976448,0.00019872591968870103,0.02477999173800404,0.0011671795594861763,0.0
1777404776.653151,0.0,-0.15,9.69,0.0,0.0,0.0,0.00741541642247129,0.0006105548582427994,0.02480370732845505,0.0011691322035645429,0.0
1777404776.660092,0.0,-0.15,9.69,0.0,0.0,0.0,0.00744445784122425,0.001486489282751742,0.024855379906582806,0.0011794500447340794,0.0
1777404776.6632235,-0.04,-0.3,9.61,0.0,0.0,0.0,0.007334547040994814,0.0014134395394320755,0.02487834723103912,0.0011838760746334144,0.0
1777404776.6681564,0.04,-0.34,9.81,0.0,0.0,0.0,0.007551605150181455,0.001107296818834166,0.02491559839608516,0.001189338237409808,0.0
1777404776.6721756,0.04,-0.34,9.81,0.0,0.0,0.0,0.0077249247389961015,0.0008628437060181794,0.02494664688023175,0.0011928062309543995,0.0
1777404776.6769695,0.04,-0.3,9.58,0.0,0.0,0.0,0.007927513316101937,0.0007650292665791704,0.024984650446555713,0.0011964736912679836,0.0
1777404776.6809769,0.04,-0.3,9.58,0.0,0.0,0.0,0.00809347574848444,0.0006848987749031847,0.02501708375143312,0.0011992183131667713,0.0
1777404776.6841571,0.0,-0.15,9.69,0.0,0.0,0.0,0.008097884630994923,0.0010900772657328312,0.025042837173953957,0.001202685048207343,0.0
1777404776.689155,0.0,-0.15,9.69,0.0,0.0,0.0,0.008104674865344266,0.0017141031724122405,0.02508334408504152,0.0012112520821665597,0.0
1777404776.6931555,0.0,-0.34,9.73,0.0,0.0,0.0,0.00811000113903146,0.0014587111696062454,0.025115787539095352,0.001217087547291363,0.0
1777404776.701157,0.0,-0.34,9.73,0.0,0.0,0.0,0.008120441568722839,0.0009580980945690822,0.02518076378771441,0.0012247538323655572,0.0
1777404776.7051747,0.04,-0.27,9.69,0.0,0.0,0.0,0.008283068458228958,0.0009873738812380686,0.025214041772950963,0.0012287206972548793,0.0
1777404776.7081552,0.04,-0.3,9.65,0.0,0.0,0.0,0.008401301131114938,0.0009210320672320603,0.0252390816044558,0.0012314658063057415,0.0
1777404776.7121572,0.04,-0.3,9.65,0.0,0.0,0.0,0.008556885530292829,0.0008337317379698607,0.025273327066995355,0.0012348024793159863,0.0
1777404776.7161565,0.0,-0.34,9.73,0.0,0.0,0.0,0.008552479298337171,0.0005914686332537489,0.025307530426539705,0.0012371679003379719,0.0
1777404776.7211578,0.0,-0.34,9.73,0.0,0.0,0.0,0.008547079218619802,0.0002945618677430012,0.025350276989680808,0.0012386410945317272,0.0
1777404776.7251575,0.04,-0.19,9.73,0.0,0.0,0.0,0.00869963560414344,0.0006498220224939347,0.025385073009925194,0.0012412401942272567,0.0
1777404776.7300074,0.04,-0.19,9.73,0.0,0.0,0.0,0.008880920532280984,0.001071982729848764,0.025428144681761012,0.0012464392147776468,0.0
1777404776.7332072,-0.04,-0.27,9.61,0.0,0.0,0.0,0.008747268846320263,0.001094074724756084,0.02545613433038602,0.0012499400523137319,0.0
1777404776.739187,-0.04,-0.27,9.61,0.0,0.0,0.0,0.008502497549332763,0.001134534268589262,0.025506977364423325,0.0012567243135381179,0.0
1777404776.7431638,0.04,-0.38,9.77,0.0,0.0,0.0,0.008654752076806355,0.00073220214686096,0.02554139577201637,0.0012596361510705525,0.0
1777404776.7461596,0.0,-0.34,9.65,0.0,0.0,0.0,0.008649718557743942,0.0005526205296899051,0.02556730798860297,0.001261291652664036,0.0
1777404776.75006,0.0,-0.34,9.65,0.0,0.0,0.0,0.008643295843504081,0.0003234763870890226,0.02560102140565613,0.0012625533813543685,0.0
1777404776.7551684,-0.04,-0.15,9.69,0.0,0.0,0.0,0.00843480494362482,0.0009805539795524477,0.02564410939611226,0.0012675624006257163,0.0
1777404776.7601676,-0.04,-0.15,9.69,0.0,0.0,0.0,0.008234851408438831,0.0016107253087598423,0.02568527674219212,0.0012756146753950407,0.0
1777404776.7640803,-0.04,-0.3,9.69,0.0,0.0,0.0,0.008081483957245655,0.0015189114224028917,0.025716897061850007,0.001281557700829786,0.0
1777404776.7701683,-0.04,-0.3,9.69,0.0,0.0,0.0,0.007847621724054905,0.0013789090924801422,0.025764673527438515,0.001289952524780668,0.0
1777404776.7741797,0.0,-0.3,9.73,0.0,0.0,0.0,0.00785385842799142,0.0012885065697884933,0.025796178436966046,0.001295121230491244,0.0
1777404776.778095,-0.04,-0.3,9.69,0.0,0.0,0.0,0.00770634385287091,0.0012020341523686176,0.02582635116139228,0.00129982756671537,0.0
1777404776.781983,-0.04,-0.3,9.69,0.0,0.0,0.0,0.007562791924180108,0.001117884621455903,0.025855754477868052,0.0013041737811342775,0.0
1777404776.7861686,-0.04,-0.23,9.69,0.0,0.0,0.0,0.007411335880340418,0.001316239144837735,0.02588677593284968,0.0013096831324895372,0.0
1777404776.7899916,-0.04,-0.23,9.69,0.0,0.0,0.0,0.007275768227702572,0.0014937854245585783,0.025914591499754513,0.0013153939367809755,0.0
1777404776.7941625,0.0,-0.19,9.69,0.0,0.0,0.0,0.0072943226068670755,0.0018471114176943477,0.025945015350692484,0.0013230980438607544,0.0
1777404776.8001618,0.0,-0.19,9.69,0.0,0.0,0.0,0.007320477069314661,0.002345163728542059,0.025988933284274592,0.0013371674472471813,0.0
1777404776.8041637,0.0,-0.3,9.69,0.0,0.0,0.0,0.007337574498044903,0.0022393453503915424,0.026018297199706015,0.0013461289845383081,0.0
1777404776.8101823,0.0,-0.3,9.69,0.0,0.0,0.0,0.007362774101324552,0.0020833814805511484,0.02606261107619514,0.001358668104758262,0.0
1777404776.8141627,0.04,-0.34,9.73,0.0,0.0,0.0,0.0075351380355763,0.0018262668236870166,0.026092603925903683,0.0013659373738959912,0.0
1777404776.8171656,0.0,-0.34,9.69,0.0,0.0,0.0,0.007544858740384818,0.0016361744654276775,0.02611526024643628,0.0013708506127532753,0.0
1777404776.820206,0.0,-0.34,9.69,0.0,0.0,0.0,0.007554503778825776,0.0014475617939332251,0.026138228307928148,0.0013752516547369362,0.0
1777404776.8261712,-0.04,-0.15,9.65,0.0,0.0,0.0,0.007339212172200213,0.0021956229010688566,0.026182008417464427,0.0013883490565906747,0.0
1777404776.829172,-0.04,-0.15,9.65,0.0,0.0,0.0,0.007233078400906466,0.0025643996857419534,0.026203712977923996,0.001396044143652735,0.0
1777404776.8331783,-0.04,-0.27,9.65,0.0,0.0,0.0,0.007094209621710238,0.002575767910249899,0.026232135118637503,0.0014063636636407568,0.0
1777404776.839173,-0.04,-0.27,9.65,0.0,0.0,0.0,0.006890574638823559,0.002592438094984916,0.026273442713108143,0.0014219048031147436,0.0
1777404776.8431911,0.04,-0.27,9.77,0.0,0.0,0.0,0.007071832717070024,0.0026033879745137284,0.02630185782006767,0.001432365393843141,0.0
1777404776.8501666,0.04,-0.27,9.77,0.0,0.0,0.0,0.007380205484135335,0.0026220169078114784,0.026353337796685805,0.0014506550430130247,0.0
1777404776.8540936,0.0,-0.38,9.69,0.0,0.0,0.0,0.007396401834344297,0.002208965021799533,0.026382383410597787,0.0014593296319016843,0.0
1777404776.8571737,0.0,-0.23,9.69,0.0,0.0,0.0,0.0074088513416834135,0.0023442470836004723,0.02640520363309077,0.0014665502167884818,0.0
1777404776.8601658,0.0,-0.23,9.69,0.0,0.0,0.0,0.007420703380600032,0.002473036779249497,0.026427407514217776,0.0014739499216214127,0.0
1777404776.8651223,0.0,-0.23,9.65,0.0,0.0,0.0,0.007439943555603764,0.0026821093532089094,0.02646428347422865,0.001487243753290233,0.0
1777404776.8691697,0.0,-0.23,9.65,0.0,0.0,0.0,0.007455340582235448,0.00284942051272713,0.02649445817346934,0.0014987764802036985,0.0
1777404776.873167,0.0,-0.27,9.73,0.0,0.0,0.0,0.007470243010224178,0.002854661961170324,0.026524319169312614,0.0015101874943888843,0.0
1777404776.880135,0.0,-0.27,9.73,0.0,0.0,0.0,0.007495700936574569,0.002863615965748445,0.026576549373792863,0.001530141231699047,0.0
1777404776.8839834,-0.04,-0.3,9.69,0.0,0.0,0.0,0.007358625777333369,0.0027553217604884763,0.02660486767849179,0.001540744575790473,0.0
1777404776.8891764,-0.04,-0.3,9.69,0.0,0.0,0.0,0.00717735315713859,0.0026121100039013974,0.026642139638062588,0.0015543092501667166,0.0
1777404776.8931694,0.0,-0.34,9.69,0.0,0.0,0.0,0.007197282392110044,0.0023476660517224826,0.026670878633973008,0.0015636835613836069,0.0
1777404776.8961763,-0.04,-0.23,9.69,0.0,0.0,0.0,0.007094117996683475,0.0024766581893606054,0.026692210186520026,0.001571130711872512,0.0
1777404776.9000895,-0.04,-0.23,9.69,0.0,0.0,0.0,0.006962547073935809,0.0026411685759728334,0.026719455776044416,0.0015814660380285182,0.0
1777404776.903177,-0.04,-0.23,9.61,0.0,0.0,0.0,0.006860812681649778,0.002768372701757016,0.026740638676527397,0.0015900134457719135,0.0
1777404776.9091775,-0.04,-0.23,9.61,0.0,0.0,0.0,0.00666704880818617,0.003010646367315439,0.02678064442823362,0.0016080788858956134,0.0
1777404776.9131289,0.0,-0.3,9.69,0.0,0.0,0.0,0.006696899529032587,0.0028959316821469483,0.026807105961754955,0.0016195216129292812,0.0
1777404776.9200697,0.0,-0.3,9.69,0.0,0.0,0.0,0.006748286357100847,0.0026984549165443056,0.026853944748935835,0.0016382511612716135,0.0
1777404776.9239893,-0.04,-0.34,9.69,0.0,0.0,0.0,0.006623076544265206,0.0024355186977471827,0.026879904569298813,0.0016477974238674968,0.0
1777404776.9271717,0.0,-0.19,9.65,0.0,0.0,0.0,0.006648199656123917,0.002694119080254107,0.026901061874303394,0.001656371218586056,0.0
1777404776.929229,0.0,-0.19,9.65,0.0,0.0,0.0,0.006664116017045721,0.0028579513732297744,0.026914772052943542,0.0016622509217262193,0.0
1777404776.9361796,-0.04,-0.27,9.65,0.0,0.0,0.0,0.006444349655636228,0.002855458843627693,0.02695956425816061,0.0016820981220408075,0.0
1777404776.9401803,-0.04,-0.27,9.65,0.0,0.0,0.0,0.006320385536898456,0.0028540528767018714,0.026984849995510395,0.0016935162279461157,0.0
1777404776.944178,0.04,-0.27,9.77,0.0,0.0,0.0,0.0065124153132201145,0.00285267601446445,0.02701088534725697,0.0017049206639170277,0.0
1777404776.9501786,0.04,-0.27,9.77,0.0,0.0,0.0,0.0067948786542419565,0.002850650739451593,0.027051658144357508,0.0017220260472680003,0.0
1777404776.9541738,0.04,-0.3,9.69,0.0,0.0,0.0,0.006979183066248987,0.0027318709726058227,0.027079541237867454,0.0017329403638954922,0.0
1777404776.960175,0.04,-0.3,9.69,0.0,0.0,0.0,0.007250493195003322,0.0025570181110524787,0.027123053144541703,0.0017482856280616808,0.0
1777404776.964175,0.0,-0.3,9.69,0.0,0.0,0.0,0.007270912433140791,0.002442805869619288,0.027152136419833814,0.0017580567257395323,0.0
1777404776.9671748,0.0,-0.27,9.73,0.0,0.0,0.0,0.0072859196786054575,0.0024470584831319934,0.027173992594635692,0.0017653973691060519,0.0
1777404776.9700596,0.0,-0.27,9.73,0.0,0.0,0.0,0.007300063369331894,0.002451066390542076,0.02719505229053969,0.0017724683642760632,0.0
1777404776.9751775,0.0,-0.23,9.61,0.0,0.0,0.0,0.007324653145846853,0.0026586558266816496,0.027232539083206303,0.0017860750809030766,0.0
1777404776.9799907,0.0,-0.23,9.61,0.0,0.0,0.0,0.007347316429184146,0.0028499816081989323,0.027267903144579147,0.0017997925960632367,0.0
1777404776.9831977,0.04,-0.27,9.73,0.0,0.0,0.0,0.007487827830729698,0.0028491967557484716,0.027291916371124277,0.0018089298797607399,0.0
1777404776.9901333,0.04,-0.27,9.73,0.0,0.0,0.0,0.0077856292683581955,0.0028475333306776057,0.02734591435396399,0.0018286792218659882,0.0
1777404776.9940274,-0.04,-0.38,9.65,0.0,0.0,0.0,0.007644193374651782,0.0024268350834277717,0.027375681535929862,0.0018381295376794404,0.0
1777404776.9971766,0.04,-0.15,9.69,0.0,0.0,0.0,0.007779000331072498,0.0028032537758787297,0.02740017971616981,0.0018469577435332798,0.0
1777404777.0011792,0.04,-0.15,9.69,0.0,0.0,0.0,0.007946906788843954,0.0032720955253441966,0.027431987775664572,0.0018600545385389538,0.0
1777404777.0061784,0.04,-0.3,9.65,0.0,0.0,0.0,0.008152425573357942,0.0031110847686804566,0.02747274306174354,0.0018756073514561127,0.0
1777404777.0091786,0.04,-0.3,9.65,0.0,0.0,0.0,0.008273301356295636,0.003016386362794374,0.02749756511190195,0.001884657292993351,0.0
1777404777.0141616,0.0,-0.3,9.77,0.0,0.0,0.0,0.008274709912031322,0.0028622531182490203,0.027538797563617767,0.0018989197523123238,0.0
1777404777.0199726,0.0,-0.3,9.77,0.0,0.0,0.0,0.008276319678268976,0.002686102124090272,0.027586891058871913,0.0019145286273653606,0.0
1777404777.0231864,-0.04,-0.3,9.61,0.0,0.0,0.0,0.008151207995130277,0.0025906265940679224,0.02761308808316351,0.001922854596700925,0.0
1777404777.0301137,-0.04,-0.3,9.61,0.0,0.0,0.0,0.00788693369583332,0.0023889529520572856,0.027667722858929034,0.001939403475375915,0.0
1777404777.0333831,-0.04,-0.19,9.65,0.0,0.0,0.0,0.007764699533144145,0.0026481183049238133,0.027693109031390068,0.0019480613233324342,0.0
1777404777.0371027,-0.04,-0.3,9.77,0.0,0.0,0.0,0.0076284174891952244,0.002536099033009516,0.02772148345090018,0.001957494516780973,0.0
1777404777.0401914,-0.04,-0.3,9.77,0.0,0.0,0.0,0.0075175128547633864,0.002444939141060492,0.02774470288826892,0.0019650462313377717,0.0
1777404777.0460372,0.04,-0.27,9.69,0.0,0.0,0.0,0.007770119181951289,0.002447724066128894,0.0277901253355265,0.0019793551003127944,0.0
1777404777.049203,0.04,-0.27,9.69,0.0,0.0,0.0,0.007904179489311007,0.002449202049340162,0.02781514776958447,0.0019871085928615316,0.0
1777404777.0531833,0.0,-0.27,9.69,0.0,0.0,0.0,0.007913336470482672,0.002451023214509455,0.027846645999654276,0.001996864641199047,0.0
1777404777.0591152,0.0,-0.27,9.69,0.0,0.0,0.0,0.007926709886338916,0.002453682955607016,0.02789366608736659,0.0020114195308626247,0.0
1777404777.0630195,-0.04,-0.27,9.69,0.0,0.0,0.0,0.007782285980647309,0.0024553985826893865,0.027924050798445968,0.0020210062482751254,0.0
1777404777.0682,0.0,-0.19,9.69,0.0,0.0,0.0,0.007797564753476302,0.002863788315409556,0.027964446841395714,0.0020358423823048795,0.0
1777404777.0721922,0.0,-0.19,9.69,0.0,0.0,0.0,0.007809102846200481,0.003172192573818741,0.027995621410062357,0.0020485060310189503,0.0
1777404777.0761871,0.0,-0.3,9.65,0.0,0.0,0.0,0.007820418280747341,0.0030439906355655883,0.028026863525252913,0.0020606665961781607,0.0
